Interval_stimulus,OS,Response.keys,Response.rt,Start.keys,Start.rt,date,expName,frameRate,id,key_resp.keys,key_resp.rt,participant,psychopyVersion,trials.ran,trials.thisIndex,trials.thisN,trials.thisRepN,trials.thisTrialN
9.403429632,Win32,space,1.106355,space,5.58533,2021-02-17_12h13.13.032,PVT builder,60,12.0,,,12,2020.1.3,1,0,0,0,0
3.924629262,Win32,space,0.538925,,,2021-02-17_12h13.13.032,PVT builder,60,12.0,,,12,2020.1.3,1,0,1,1,0
6.181046941,Win32,space,0.21786,,,2021-02-17_12h13.13.032,PVT builder,60,12.0,,,12,2020.1.3,1,0,2,2,0
4.207846475,Win32,space,0.20198,,,2021-02-17_12h13.13.032,PVT builder,60,12.0,,,12,2020.1.3,1,0,3,3,0
7.254434708,Win32,space,0.21024,,,2021-02-17_12h13.13.032,PVT builder,60,12.0,"[""space""]",[3.017375000003085],12,2020.1.3,1,0,4,4,0
2.270953207,Win32,space,0.243495,,,2021-02-17_12h13.13.032,PVT builder,60,12.0,,,12,2020.1.3,1,0,5,5,0
3.587398292,Win32,space,0.215765,,,2021-02-17_12h13.13.032,PVT builder,60,12.0,,,12,2020.1.3,1,0,6,6,0
2.364003061,Win32,space,0.208565,,,2021-02-17_12h13.13.032,PVT builder,60,12.0,,,12,2020.1.3,1,0,7,7,0
4.9638211210000005,Win32,space,0.221115,,,2021-02-17_12h13.13.032,PVT builder,60,12.0,,,12,2020.1.3,1,0,8,8,0
4.294801067,Win32,space,0.218075,,,2021-02-17_12h13.13.032,PVT builder,60,12.0,,,12,2020.1.3,1,0,9,9,0
8.653544964,Win32,space,0.19635999999999998,,,2021-02-17_12h13.13.032,PVT builder,60,12.0,,,12,2020.1.3,1,0,10,10,0
9.155272258,Win32,space,0.20131,,,2021-02-17_12h13.13.032,PVT builder,60,12.0,,,12,2020.1.3,1,0,11,11,0
5.747792812,Win32,space,0.313145,,,2021-02-17_12h13.13.032,PVT builder,60,12.0,,,12,2020.1.3,1,0,12,12,0
7.1749978,Win32,space,0.23425,,,2021-02-17_12h13.13.032,PVT builder,60,12.0,,,12,2020.1.3,1,0,13,13,0
3.110412273,Win32,space,0.201505,,,2021-02-17_12h13.13.032,PVT builder,60,12.0,,,12,2020.1.3,1,0,14,14,0
8.473039516,Win32,space,0.209625,,,2021-02-17_12h13.13.032,PVT builder,60,12.0,,,12,2020.1.3,1,0,15,15,0
6.709934272999999,Win32,space,0.21471500000000002,,,2021-02-17_12h13.13.032,PVT builder,60,12.0,,,12,2020.1.3,1,0,16,16,0
8.76769382,Win32,space,0.254695,,,2021-02-17_12h13.13.032,PVT builder,60,12.0,,,12,2020.1.3,1,0,17,17,0
3.5420877089999996,Win32,space,0.245975,,,2021-02-17_12h13.13.032,PVT builder,60,12.0,,,12,2020.1.3,1,0,18,18,0
7.503546202000001,Win32,space,0.213085,,,2021-02-17_12h13.13.032,PVT builder,60,12.0,,,12,2020.1.3,1,0,19,19,0
7.268755644,Win32,space,0.22888499999999998,,,2021-02-17_12h13.13.032,PVT builder,60,12.0,,,12,2020.1.3,1,0,20,20,0
9.015645349,Win32,space,0.23856,,,2021-02-17_12h13.13.032,PVT builder,60,12.0,,,12,2020.1.3,1,0,21,21,0
9.619739306,Win32,space,0.221205,,,2021-02-17_12h13.13.032,PVT builder,60,12.0,,,12,2020.1.3,1,0,22,22,0
4.599675285,Win32,space,0.371165,,,2021-02-17_12h13.13.032,PVT builder,60,12.0,,,12,2020.1.3,1,0,23,23,0
8.55240275,Win32,space,0.24877,,,2021-02-17_12h13.13.032,PVT builder,60,12.0,,,12,2020.1.3,1,0,24,24,0
7.7569932029999995,Win32,space,0.255175,,,2021-02-17_12h13.13.032,PVT builder,60,12.0,,,12,2020.1.3,1,0,25,25,0
5.351702008999999,Win32,space,0.26705500000000004,,,2021-02-17_12h13.13.032,PVT builder,60,12.0,"[""space"",""space""]","[4.6036349999994854,4.7702250000002095]",12,2020.1.3,1,0,26,26,0
8.475342778,Win32,space,0.30027,,,2021-02-17_12h13.13.032,PVT builder,60,12.0,"[""lcontrol"",""lcommand""]","[0.6010450000030687,0.6024500000057742]",12,2020.1.3,1,0,27,27,0
5.540769771,Win32,space,0.216245,,,2021-02-17_12h13.13.032,PVT builder,60,12.0,,,12,2020.1.3,1,0,28,28,0
6.1655642429999995,Win32,space,0.303735,,,2021-02-17_12h13.13.032,PVT builder,60,12.0,"[""space""]",[6.086019999995187],12,2020.1.3,1,0,29,29,0
3.74268352,Win32,space,0.316135,,,2021-02-17_12h13.13.032,PVT builder,60,12.0,,,12,2020.1.3,1,0,30,30,0
5.199648288000001,Win32,space,0.269215,,,2021-02-17_12h13.13.032,PVT builder,60,12.0,,,12,2020.1.3,1,0,31,31,0
3.40697174,Win32,space,0.26991,,,2021-02-17_12h13.13.032,PVT builder,60,12.0,,,12,2020.1.3,1,0,32,32,0
6.429794015,Win32,space,0.35445,,,2021-02-17_12h13.13.032,PVT builder,60,12.0,,,12,2020.1.3,1,0,33,33,0
7.839760557000001,Win32,space,0.26793,,,2021-02-17_12h13.13.032,PVT builder,60,12.0,"[""space""]",[7.795274999996764],12,2020.1.3,1,0,34,34,0
8.4286391,Win32,space,0.29527,,,2021-02-17_12h13.13.032,PVT builder,60,12.0,,,12,2020.1.3,1,0,35,35,0
4.7753538760000005,Win32,space,0.4442,,,2021-02-17_12h13.13.032,PVT builder,60,12.0,,,12,2020.1.3,1,0,36,36,0
4.245890256,Win32,space,0.252795,,,2021-02-17_12h13.13.032,PVT builder,60,12.0,,,12,2020.1.3,1,0,37,37,0
3.7134965039999996,Win32,space,0.51652,,,2021-02-17_12h13.13.032,PVT builder,60,12.0,,,12,2020.1.3,1,0,38,38,0
5.847997785,Win32,space,0.26477,,,2021-02-17_12h13.13.032,PVT builder,60,12.0,,,12,2020.1.3,1,0,39,39,0
5.4102990029999996,Win32,space,0.21168499999999998,,,2021-02-17_12h13.13.032,PVT builder,60,12.0,,,12,2020.1.3,1,0,40,40,0
8.947948575,Win32,space,0.20954,,,2021-02-17_12h13.13.032,PVT builder,60,12.0,"[""space""]",[7.525594999999157],12,2020.1.3,1,0,41,41,0
3.383666199,Win32,space,0.253705,,,2021-02-17_12h13.13.032,PVT builder,60,12.0,,,12,2020.1.3,1,0,42,42,0
4.046569508999999,Win32,space,0.233665,,,2021-02-17_12h13.13.032,PVT builder,60,12.0,,,12,2020.1.3,1,0,43,43,0
2.94029504,Win32,space,0.28329499999999996,,,2021-02-17_12h13.13.032,PVT builder,60,12.0,,,12,2020.1.3,1,0,44,44,0
6.07441785,Win32,space,0.22564,,,2021-02-17_12h13.13.032,PVT builder,60,12.0,"[""space""]",[1.3424749999976484],12,2020.1.3,1,0,45,45,0
2.397065701,Win32,space,0.42894499999999997,,,2021-02-17_12h13.13.032,PVT builder,60,12.0,"[""space""]",[1.4159199999994598],12,2020.1.3,1,0,46,46,0
4.873534309,Win32,space,0.20992,,,2021-02-17_12h13.13.032,PVT builder,60,12.0,"[""space"",""space""]","[0.292249999998603,1.067284999997355]",12,2020.1.3,1,0,47,47,0
6.776707012,Win32,space,0.258275,,,2021-02-17_12h13.13.032,PVT builder,60,12.0,"[""space""]",[3.79884999999922],12,2020.1.3,1,0,48,48,0
3.6690553610000003,Win32,space,0.198325,,,2021-02-17_12h13.13.032,PVT builder,60,12.0,,,12,2020.1.3,1,0,49,49,0
2.1945817819999998,Win32,space,0.163915,,,2021-02-17_12h13.13.032,PVT builder,60,12.0,,,12,2020.1.3,1,0,50,50,0
3.335958143,Win32,space,0.21039000000000002,,,2021-02-17_12h13.13.032,PVT builder,60,12.0,,,12,2020.1.3,1,0,51,51,0
3.4958175369999998,Win32,space,0.21029499999999998,,,2021-02-17_12h13.13.032,PVT builder,60,12.0,,,12,2020.1.3,1,0,52,52,0
7.542191579,Win32,space,0.219325,,,2021-02-17_12h13.13.032,PVT builder,60,12.0,,,12,2020.1.3,1,0,53,53,0
2.084665135,Win32,space,0.21022,,,2021-02-17_12h13.13.032,PVT builder,60,12.0,,,12,2020.1.3,1,0,54,54,0
3.79337343,Win32,space,0.19505,,,2021-02-17_12h13.13.032,PVT builder,60,12.0,"[""space""]",[0.47590499999932945],12,2020.1.3,1,0,55,55,0
4.038674026,Win32,space,0.250415,,,2021-02-17_12h13.13.032,PVT builder,60,12.0,,,12,2020.1.3,1,0,56,56,0
2.068643527,Win32,space,0.331995,,,2021-02-17_12h13.13.032,PVT builder,60,12.0,,,12,2020.1.3,1,0,57,57,0
2.440090372,Win32,space,0.25895999999999997,,,2021-02-17_12h13.13.032,PVT builder,60,12.0,,,12,2020.1.3,1,0,58,58,0
8.644638095,Win32,space,0.20700500000000002,,,2021-02-17_12h13.13.032,PVT builder,60,12.0,"[""space"",""space""]","[3.011244999994233,3.024744999995164]",12,2020.1.3,1,0,59,59,0
7.665387965,Win32,space,0.20262,,,2021-02-17_12h13.13.032,PVT builder,60,12.0,,,12,2020.1.3,1,0,60,60,0
5.232871236,Win32,space,0.227225,,,2021-02-17_12h13.13.032,PVT builder,60,12.0,,,12,2020.1.3,1,0,61,61,0
4.72384135,Win32,space,0.24495,,,2021-02-17_12h13.13.032,PVT builder,60,12.0,,,12,2020.1.3,1,0,62,62,0
4.265024692,Win32,space,0.20599499999999998,,,2021-02-17_12h13.13.032,PVT builder,60,12.0,"[""space""]",[0.9924099999989267],12,2020.1.3,1,0,63,63,0
4.2334266,Win32,space,0.218275,,,2021-02-17_12h13.13.032,PVT builder,60,12.0,,,12,2020.1.3,1,0,64,64,0
8.618711146,Win32,space,0.199125,,,2021-02-17_12h13.13.032,PVT builder,60,12.0,,,12,2020.1.3,1,0,65,65,0
2.676516292,Win32,space,0.26609,,,2021-02-17_12h13.13.032,PVT builder,60,12.0,,,12,2020.1.3,1,0,66,66,0
9.365603848,Win32,space,0.23886999999999997,,,2021-02-17_12h13.13.032,PVT builder,60,12.0,,,12,2020.1.3,1,0,67,67,0
2.710663798,Win32,space,0.34298,,,2021-02-17_12h13.13.032,PVT builder,60,12.0,,,12,2020.1.3,1,0,68,68,0
3.073858383,Win32,space,0.270545,,,2021-02-17_12h13.13.032,PVT builder,60,12.0,"[""space""]",[2.3004500000024564],12,2020.1.3,1,0,69,69,0
6.857741613,Win32,space,0.209065,,,2021-02-17_12h13.13.032,PVT builder,60,12.0,"[""space""]",[5.56113500000356],12,2020.1.3,1,0,70,70,0
6.079069689,Win32,space,0.291485,,,2021-02-17_12h13.13.032,PVT builder,60,12.0,,,12,2020.1.3,1,0,71,71,0
7.748590217,Win32,space,0.33276,,,2021-02-17_12h13.13.032,PVT builder,60,12.0,,,12,2020.1.3,1,0,72,72,0
8.715438977,Win32,space,0.189925,,,2021-02-17_12h13.13.032,PVT builder,60,12.0,"[""space"",""space""]","[6.6104750000013155,6.629085000000487]",12,2020.1.3,1,0,73,73,0
3.728949918,Win32,space,0.24155500000000002,,,2021-02-17_12h13.13.032,PVT builder,60,12.0,,,12,2020.1.3,1,0,74,74,0
6.883900211,Win32,space,0.29411,,,2021-02-17_12h13.13.032,PVT builder,60,12.0,"[""space""]",[1.4841000000014901],12,2020.1.3,1,0,75,75,0
4.425249372,Win32,space,0.27044,,,2021-02-17_12h13.13.032,PVT builder,60,12.0,,,12,2020.1.3,1,0,76,76,0
3.896041692,Win32,space,0.35106,,,2021-02-17_12h13.13.032,PVT builder,60,12.0,,,12,2020.1.3,1,0,77,77,0
3.9890193710000004,Win32,space,0.337735,,,2021-02-17_12h13.13.032,PVT builder,60,12.0,,,12,2020.1.3,1,0,78,78,0
8.964204508,Win32,space,0.256715,,,2021-02-17_12h13.13.032,PVT builder,60,12.0,"[""space""]",[1.7178500000006807],12,2020.1.3,1,0,79,79,0
9.244176445,Win32,space,0.21610500000000002,,,2021-02-17_12h13.13.032,PVT builder,60,12.0,"[""space""]",[8.890294999997536],12,2020.1.3,1,0,80,80,0
7.042731383,Win32,space,0.33337,,,2021-02-17_12h13.13.032,PVT builder,60,12.0,,,12,2020.1.3,1,0,81,81,0
8.117894598,Win32,space,0.23847,,,2021-02-17_12h13.13.032,PVT builder,60,12.0,,,12,2020.1.3,1,0,82,82,0
5.186860507,Win32,space,0.84024,,,2021-02-17_12h13.13.032,PVT builder,60,12.0,,,12,2020.1.3,1,0,83,83,0
2.8266237010000004,Win32,space,0.43906999999999996,,,2021-02-17_12h13.13.032,PVT builder,60,12.0,,,12,2020.1.3,1,0,84,84,0
5.397139231000001,Win32,space,0.328885,,,2021-02-17_12h13.13.032,PVT builder,60,12.0,,,12,2020.1.3,1,0,85,85,0
7.553527346,Win32,space,0.37035,,,2021-02-17_12h13.13.032,PVT builder,60,12.0,"[""space"",""space""]","[4.148954999997159,6.577900000003865]",12,2020.1.3,1,0,86,86,0
4.515401009,Win32,space,0.32066,space,12.280435,2021-02-22_19h38.39.766,PVT builder,60,13.0,,,13,2020.1.3,1,0,0,0,0
6.181833726,Win32,space,0.223505,,,2021-02-22_19h38.39.766,PVT builder,60,13.0,,,13,2020.1.3,1,0,1,1,0
9.397662992999999,Win32,space,0.27416,,,2021-02-22_19h38.39.766,PVT builder,60,13.0,,,13,2020.1.3,1,0,2,2,0
6.107895121,Win32,space,0.26738,,,2021-02-22_19h38.39.766,PVT builder,60,13.0,,,13,2020.1.3,1,0,3,3,0
2.925294815,Win32,space,0.26757,,,2021-02-22_19h38.39.766,PVT builder,60,13.0,,,13,2020.1.3,1,0,4,4,0
6.6836111460000005,Win32,space,0.21706999999999999,,,2021-02-22_19h38.39.766,PVT builder,60,13.0,,,13,2020.1.3,1,0,5,5,0
5.632946092,Win32,space,0.23459499999999997,,,2021-02-22_19h38.39.766,PVT builder,60,13.0,,,13,2020.1.3,1,0,6,6,0
3.192850715,Win32,space,0.267175,,,2021-02-22_19h38.39.766,PVT builder,60,13.0,,,13,2020.1.3,1,0,7,7,0
3.4148988589999996,Win32,space,0.23801,,,2021-02-22_19h38.39.766,PVT builder,60,13.0,,,13,2020.1.3,1,0,8,8,0
5.5139026829999995,Win32,space,0.24946500000000002,,,2021-02-22_19h38.39.766,PVT builder,60,13.0,,,13,2020.1.3,1,0,9,9,0
4.533629618,Win32,space,0.267275,,,2021-02-22_19h38.39.766,PVT builder,60,13.0,,,13,2020.1.3,1,0,10,10,0
2.605004714,Win32,space,0.300765,,,2021-02-22_19h38.39.766,PVT builder,60,13.0,,,13,2020.1.3,1,0,11,11,0
2.7888138139999996,Win32,space,0.283815,,,2021-02-22_19h38.39.766,PVT builder,60,13.0,,,13,2020.1.3,1,0,12,12,0
4.695538948,Win32,space,0.251255,,,2021-02-22_19h38.39.766,PVT builder,60,13.0,,,13,2020.1.3,1,0,13,13,0
6.500765313,Win32,space,0.23378000000000002,,,2021-02-22_19h38.39.766,PVT builder,60,13.0,,,13,2020.1.3,1,0,14,14,0
6.508434815,Win32,space,0.30064,,,2021-02-22_19h38.39.766,PVT builder,60,13.0,,,13,2020.1.3,1,0,15,15,0
2.189462806,Win32,space,0.41733000000000003,,,2021-02-22_19h38.39.766,PVT builder,60,13.0,,,13,2020.1.3,1,0,16,16,0
6.65680061,Win32,space,0.217045,,,2021-02-22_19h38.39.766,PVT builder,60,13.0,,,13,2020.1.3,1,0,17,17,0
5.818607641,Win32,space,0.21744499999999997,,,2021-02-22_19h38.39.766,PVT builder,60,13.0,,,13,2020.1.3,1,0,18,18,0
4.274176272,Win32,space,0.23805500000000002,,,2021-02-22_19h38.39.766,PVT builder,60,13.0,,,13,2020.1.3,1,0,19,19,0
4.46597047,Win32,space,0.200715,,,2021-02-22_19h38.39.766,PVT builder,60,13.0,,,13,2020.1.3,1,0,20,20,0
3.692954259,Win32,space,0.21700500000000003,,,2021-02-22_19h38.39.766,PVT builder,60,13.0,,,13,2020.1.3,1,0,21,21,0
7.336221162,Win32,space,0.250695,,,2021-02-22_19h38.39.766,PVT builder,60,13.0,,,13,2020.1.3,1,0,22,22,0
5.8481760210000004,Win32,space,0.250755,,,2021-02-22_19h38.39.766,PVT builder,60,13.0,,,13,2020.1.3,1,0,23,23,0
4.3054780589999995,Win32,space,0.23419,,,2021-02-22_19h38.39.766,PVT builder,60,13.0,,,13,2020.1.3,1,0,24,24,0
8.064956097,Win32,space,0.21698499999999998,,,2021-02-22_19h38.39.766,PVT builder,60,13.0,,,13,2020.1.3,1,0,25,25,0
7.133214113999999,Win32,space,0.21739499999999998,,,2021-02-22_19h38.39.766,PVT builder,60,13.0,,,13,2020.1.3,1,0,26,26,0
9.917350966,Win32,space,0.301135,,,2021-02-22_19h38.39.766,PVT builder,60,13.0,,,13,2020.1.3,1,0,27,27,0
3.3482182289999995,Win32,space,0.284095,,,2021-02-22_19h38.39.766,PVT builder,60,13.0,,,13,2020.1.3,1,0,28,28,0
6.322710392,Win32,space,0.23776999999999998,,,2021-02-22_19h38.39.766,PVT builder,60,13.0,,,13,2020.1.3,1,0,29,29,0
5.084750215,Win32,space,0.23355,,,2021-02-22_19h38.39.766,PVT builder,60,13.0,,,13,2020.1.3,1,0,30,30,0
3.663160725,Win32,space,0.23411500000000002,,,2021-02-22_19h38.39.766,PVT builder,60,13.0,,,13,2020.1.3,1,0,31,31,0
5.5629879529999995,Win32,space,0.21752,,,2021-02-22_19h38.39.766,PVT builder,60,13.0,,,13,2020.1.3,1,0,32,32,0
3.9276062880000002,Win32,space,0.36467,,,2021-02-22_19h38.39.766,PVT builder,60,13.0,,,13,2020.1.3,1,0,33,33,0
2.9388010810000003,Win32,space,0.30096,,,2021-02-22_19h38.39.766,PVT builder,60,13.0,,,13,2020.1.3,1,0,34,34,0
5.003069215,Win32,space,0.21716,,,2021-02-22_19h38.39.766,PVT builder,60,13.0,,,13,2020.1.3,1,0,35,35,0
6.868674414,Win32,space,0.21734499999999998,,,2021-02-22_19h38.39.766,PVT builder,60,13.0,,,13,2020.1.3,1,0,36,36,0
7.6302768620000005,Win32,space,0.23415999999999998,,,2021-02-22_19h38.39.766,PVT builder,60,13.0,,,13,2020.1.3,1,0,37,37,0
5.068214226,Win32,space,0.233515,,,2021-02-22_19h38.39.766,PVT builder,60,13.0,,,13,2020.1.3,1,0,38,38,0
4.28004773,Win32,space,0.23063000000000003,,,2021-02-22_19h38.39.766,PVT builder,60,13.0,,,13,2020.1.3,1,0,39,39,0
7.271088715,Win32,space,0.21754,,,2021-02-22_19h38.39.766,PVT builder,60,13.0,,,13,2020.1.3,1,0,40,40,0
3.3825315910000002,Win32,space,0.250785,,,2021-02-22_19h38.39.766,PVT builder,60,13.0,,,13,2020.1.3,1,0,41,41,0
9.062944287,Win32,space,0.21703000000000003,,,2021-02-22_19h38.39.766,PVT builder,60,13.0,,,13,2020.1.3,1,0,42,42,0
8.332807838999999,Win32,space,0.21700999999999998,,,2021-02-22_19h38.39.766,PVT builder,60,13.0,,,13,2020.1.3,1,0,43,43,0
6.319635656,Win32,space,0.263365,,,2021-02-22_19h38.39.766,PVT builder,60,13.0,,,13,2020.1.3,1,0,44,44,0
8.946027523,Win32,space,0.26811999999999997,,,2021-02-22_19h38.39.766,PVT builder,60,13.0,,,13,2020.1.3,1,0,45,45,0
3.7697636869999998,Win32,space,0.334325,,,2021-02-22_19h38.39.766,PVT builder,60,13.0,,,13,2020.1.3,1,0,46,46,0
5.420229187,Win32,space,0.248525,,,2021-02-22_19h38.39.766,PVT builder,60,13.0,,,13,2020.1.3,1,0,47,47,0
2.213398619,Win32,space,0.317475,,,2021-02-22_19h38.39.766,PVT builder,60,13.0,,,13,2020.1.3,1,0,48,48,0
6.299912387000001,Win32,space,0.2669,,,2021-02-22_19h38.39.766,PVT builder,60,13.0,,,13,2020.1.3,1,0,49,49,0
5.916125752,Win32,space,0.231285,,,2021-02-22_19h38.39.766,PVT builder,60,13.0,,,13,2020.1.3,1,0,50,50,0
7.39999515,Win32,space,0.21718,,,2021-02-22_19h38.39.766,PVT builder,60,13.0,,,13,2020.1.3,1,0,51,51,0
8.084736585,Win32,space,0.23901,,,2021-02-22_19h38.39.766,PVT builder,60,13.0,,,13,2020.1.3,1,0,52,52,0
3.4403074539999996,Win32,space,0.33393,,,2021-02-22_19h38.39.766,PVT builder,60,13.0,,,13,2020.1.3,1,0,53,53,0
6.0252065539999995,Win32,space,0.217275,,,2021-02-22_19h38.39.766,PVT builder,60,13.0,,,13,2020.1.3,1,0,54,54,0
6.831088577999999,Win32,space,0.21716,,,2021-02-22_19h38.39.766,PVT builder,60,13.0,,,13,2020.1.3,1,0,55,55,0
7.702226819,Win32,space,0.21734499999999998,,,2021-02-22_19h38.39.766,PVT builder,60,13.0,,,13,2020.1.3,1,0,56,56,0
9.91575753,Win32,space,0.21700500000000003,,,2021-02-22_19h38.39.766,PVT builder,60,13.0,,,13,2020.1.3,1,0,57,57,0
4.019505456,Win32,space,0.2339,,,2021-02-22_19h38.39.766,PVT builder,60,13.0,,,13,2020.1.3,1,0,58,58,0
4.147895115,Win32,space,0.217125,,,2021-02-22_19h38.39.766,PVT builder,60,13.0,,,13,2020.1.3,1,0,59,59,0
9.075997521,Win32,space,0.216865,,,2021-02-22_19h38.39.766,PVT builder,60,13.0,,,13,2020.1.3,1,0,60,60,0
2.635436113,Win32,space,0.26721999999999996,,,2021-02-22_19h38.39.766,PVT builder,60,13.0,,,13,2020.1.3,1,0,61,61,0
5.162576175,Win32,space,0.200785,,,2021-02-22_19h38.39.766,PVT builder,60,13.0,,,13,2020.1.3,1,0,62,62,0
4.368834491,Win32,space,0.284165,,,2021-02-22_19h38.39.766,PVT builder,60,13.0,,,13,2020.1.3,1,0,63,63,0
7.480295921000001,Win32,space,0.217615,,,2021-02-22_19h38.39.766,PVT builder,60,13.0,,,13,2020.1.3,1,0,64,64,0
7.181588391,Win32,space,0.25094,,,2021-02-22_19h38.39.766,PVT builder,60,13.0,,,13,2020.1.3,1,0,65,65,0
7.980472517000001,Win32,space,0.25056,,,2021-02-22_19h38.39.766,PVT builder,60,13.0,,,13,2020.1.3,1,0,66,66,0
8.47993439,Win32,space,0.250785,,,2021-02-22_19h38.39.766,PVT builder,60,13.0,,,13,2020.1.3,1,0,67,67,0
5.244241883,Win32,space,0.35093,,,2021-02-22_19h38.39.766,PVT builder,60,13.0,,,13,2020.1.3,1,0,68,68,0
7.242508067,Win32,space,0.267705,,,2021-02-22_19h38.39.766,PVT builder,60,13.0,,,13,2020.1.3,1,0,69,69,0
9.512276437999999,Win32,space,0.26771,,,2021-02-22_19h38.39.766,PVT builder,60,13.0,,,13,2020.1.3,1,0,70,70,0
2.624298205,Win32,space,0.317225,,,2021-02-22_19h38.39.766,PVT builder,60,13.0,,,13,2020.1.3,1,0,71,71,0
7.4010838,Win32,space,0.26761999999999997,,,2021-02-22_19h38.39.766,PVT builder,60,13.0,,,13,2020.1.3,1,0,72,72,0
3.990527473,Win32,space,0.28389000000000003,,,2021-02-22_19h38.39.766,PVT builder,60,13.0,,,13,2020.1.3,1,0,73,73,0
6.074953511,Win32,space,0.339905,,,2021-02-22_19h38.39.766,PVT builder,60,13.0,,,13,2020.1.3,1,0,74,74,0
8.363151315,Win32,space,0.25039,,,2021-02-22_19h38.39.766,PVT builder,60,13.0,,,13,2020.1.3,1,0,75,75,0
9.824010284,Win32,space,0.26802,,,2021-02-22_19h38.39.766,PVT builder,60,13.0,,,13,2020.1.3,1,0,76,76,0
8.461715935,Win32,space,0.26732,,,2021-02-22_19h38.39.766,PVT builder,60,13.0,,,13,2020.1.3,1,0,77,77,0
9.076712671000001,Win32,space,0.23312,,,2021-02-22_19h38.39.766,PVT builder,60,13.0,,,13,2020.1.3,1,0,78,78,0
5.703093432,Win32,space,0.267475,,,2021-02-22_19h38.39.766,PVT builder,60,13.0,,,13,2020.1.3,1,0,79,79,0
8.369725702,Win32,space,0.25067,,,2021-02-22_19h38.39.766,PVT builder,60,13.0,,,13,2020.1.3,1,0,80,80,0
3.577384725,Win32,space,0.28386,,,2021-02-22_19h38.39.766,PVT builder,60,13.0,,,13,2020.1.3,1,0,81,81,0
9.007279316,Win32,space,0.26998,,,2021-02-22_19h38.39.766,PVT builder,60,13.0,,,13,2020.1.3,1,0,82,82,0
8.693405272,Win32,space,0.233605,,,2021-02-22_19h38.39.766,PVT builder,60,13.0,,,13,2020.1.3,1,0,83,83,0
9.425740427000001,MacIntel,space,0.09,space,12.856,2021-02-21_13h37.15.299,PVT builder,60,14.0,"[""space"",""space"",""space"",""space"",""space"",""space"",""space"",""space"",""space"",""space"",""space"",""space"",""space"",""space"",""space"",""space"",""space"",""space"",""space"",""space"",""space"",""space"",""space"",""space"",""space"",""space"",""space"",""space"",""space"",""space"",""space"",""space"",""space"",""space"",""space"",""space"",""space"",""space"",""space"",""space"",""space"",""space"",""space"",""space"",""space"",""space"",""space"",""space"",""space"",""space""]","[0.8730000000000047,1.0600000000000023,1.2109999999999985,1.3840000000000003,1.5429999999999993,1.7000000000000028,1.8759999999999977,2.0450000000000017,2.230000000000004,2.6610000000000014,2.8230000000000004,2.9879999999999995,3.1540000000000035,3.3220000000000027,3.4879999999999995,3.655000000000001,3.814,3.9840000000000018,4.151000000000003,4.310000000000002,4.481000000000002,4.642000000000003,4.808,4.969000000000001,5.140999999999998,5.292999999999999,5.4680000000000035,5.634,5.802,5.972999999999999,6.140000000000001,6.314,6.481000000000002,6.646000000000001,6.841999999999999,6.992000000000004,7.140000000000001,7.3260000000000005,7.490000000000002,7.658000000000008,7.832999999999998,7.991,8.158000000000008,8.32,8.5,8.651000000000003,8.821000000000005,8.994,9.169000000000004,9.338999999999999]",14,2020.1.3,1,0,0,0,0
7.90046654,MacIntel,space,0.126,,,2021-02-21_13h37.15.299,PVT builder,60,14.0,"[""space"",""space"",""space"",""space"",""space"",""space"",""space"",""space"",""space"",""space"",""space"",""space"",""space"",""space"",""space"",""space"",""space"",""space"",""space"",""space"",""space"",""space"",""space"",""space"",""space"",""space"",""space"",""space"",""space"",""space"",""space"",""space"",""space"",""space"",""space"",""space""]","[1.286999999999992,1.8359999999999985,2.1299999999999955,2.306999999999995,2.4879999999999924,2.671999999999997,2.8399999999999963,3.0109999999999957,3.191999999999993,3.3619999999999948,3.515999999999991,3.6829999999999927,3.8419999999999987,4.002999999999993,4.1769999999999925,4.336999999999996,4.525999999999996,4.694999999999993,4.844999999999999,5.019999999999996,5.191999999999993,5.371999999999993,5.547999999999995,5.700999999999993,5.8799999999999955,6.064999999999998,6.249999999999993,6.423999999999992,6.594999999999999,6.768999999999998,6.944999999999993,7.116999999999997,7.293999999999997,7.484999999999992,7.662999999999997,7.851999999999997]",14,2020.1.3,1,0,1,1,0
4.304022359,MacIntel,space,0.1,,,2021-02-21_13h37.15.299,PVT builder,60,14.0,"[""space"",""space"",""space"",""space"",""space"",""space"",""space"",""space"",""space"",""space"",""space"",""space"",""space"",""space"",""space"",""space"",""space"",""space"",""space"",""space"",""space"",""space"",""space"",""space""]","[0.08800000000000097,0.2669999999999959,0.41799999999999926,0.6119999999999948,0.7789999999999964,0.9540000000000006,1.1299999999999955,1.3159999999999954,1.4949999999999974,1.6709999999999994,1.8419999999999987,2.027000000000001,2.2109999999999985,2.3900000000000006,2.5529999999999973,2.728999999999999,2.911999999999999,3.083999999999996,3.2759999999999962,3.4579999999999984,3.647999999999996,3.8349999999999937,4.012999999999998,4.169999999999995]",14,2020.1.3,1,0,2,2,0
2.894322435,MacIntel,space,0.094,,,2021-02-21_13h37.15.299,PVT builder,60,14.0,"[""space"",""space"",""space"",""space"",""space"",""space"",""space"",""space"",""space"",""space"",""space"",""space"",""space"",""space""]","[0.13299999999999557,0.3329999999999984,0.5360000000000014,0.7520000000000024,0.9199999999999946,1.1270000000000024,1.3200000000000003,1.5120000000000005,1.708999999999996,1.9199999999999946,2.138999999999996,2.338000000000001,2.5649999999999977,2.817]",14,2020.1.3,1,0,3,3,0
9.084608829,MacIntel,space,0.015,,,2021-02-21_13h37.15.299,PVT builder,60,14.0,"[""space"",""space"",""space"",""space"",""space"",""space"",""space"",""space"",""space"",""space"",""space"",""space"",""space"",""space"",""space"",""space"",""space"",""space"",""space"",""space"",""space"",""space"",""space"",""space"",""space"",""space"",""space"",""space"",""space"",""space"",""space"",""space"",""space"",""space"",""space"",""space"",""space"",""space"",""space"",""space"",""space"",""space"",""space"",""space"",""space"",""space""]","[0.09100000000000108,0.2990000000000066,0.4930000000000021,0.6770000000000067,0.8840000000000003,1.0740000000000052,1.277000000000001,1.4969999999999999,1.8960000000000008,2.0730000000000004,2.2850000000000037,2.4720000000000013,2.672000000000004,2.8660000000000068,3.0490000000000066,3.2290000000000063,3.4170000000000016,3.594000000000001,3.7860000000000014,3.969000000000001,4.163000000000004,4.344999999999999,4.532000000000004,4.719000000000001,4.897000000000006,5.113000000000007,5.291000000000004,5.489000000000004,5.6640000000000015,5.849000000000004,6.037000000000006,6.183000000000007,6.375,6.571000000000005,6.776000000000003,6.977000000000004,7.142000000000003,7.313000000000002,7.504000000000005,7.704000000000001,7.898000000000003,8.109000000000002,8.322000000000003,8.499000000000002,8.697000000000003,8.889000000000003]",14,2020.1.3,1,0,4,4,0
2.957858883,MacIntel,space,0.009000000000000001,,,2021-02-21_13h37.15.299,PVT builder,60,14.0,"[""space"",""space"",""space"",""space"",""space"",""space"",""space"",""space"",""space"",""space""]","[0.09899999999999665,0.27599999999999625,0.4759999999999991,0.6679999999999993,1.8909999999999982,2.0649999999999977,2.239999999999995,2.4279999999999973,2.6069999999999993,2.7979999999999947]",14,2020.1.3,1,0,5,5,0
8.368374049,MacIntel,space,0.08800000000000001,,,2021-02-21_13h37.15.299,PVT builder,60,14.0,"[""space"",""space"",""space"",""space"",""space"",""space"",""space"",""space"",""space"",""space"",""space""]","[6.532999999999987,6.709999999999994,6.894999999999996,7.086999999999989,7.250999999999991,7.4199999999999875,7.5919999999999845,7.758999999999986,7.947999999999993,8.123999999999995,8.295999999999992]",14,2020.1.3,1,0,6,6,0
8.226431483999999,MacIntel,space,2.698,,,2021-02-21_13h37.15.299,PVT builder,60,14.0,"[""space""]",[0.4620000000000033],14,2020.1.3,1,0,7,7,0
4.558017259,MacIntel,space,0.903,,,2021-02-21_13h37.15.299,PVT builder,60,14.0,,,14,2020.1.3,1,0,8,8,0
8.542463101000001,MacIntel,space,0.29600000000000004,,,2021-02-21_13h37.15.299,PVT builder,60,14.0,,,14,2020.1.3,1,0,9,9,0
3.385455367,MacIntel,space,0.292,,,2021-02-21_13h37.15.299,PVT builder,60,14.0,,,14,2020.1.3,1,0,10,10,0
2.9517455939999997,MacIntel,space,0.326,,,2021-02-21_13h37.15.299,PVT builder,60,14.0,,,14,2020.1.3,1,0,11,11,0
3.4284884030000002,MacIntel,space,0.29,,,2021-02-21_13h37.15.299,PVT builder,60,14.0,,,14,2020.1.3,1,0,12,12,0
4.998544212,MacIntel,space,0.359,,,2021-02-21_13h37.15.299,PVT builder,60,14.0,,,14,2020.1.3,1,0,13,13,0
8.255543126000001,MacIntel,space,0.306,,,2021-02-21_13h37.15.299,PVT builder,60,14.0,"[""space""]",[5.116],14,2020.1.3,1,0,14,14,0
6.344807767000001,MacIntel,space,0.40299999999999997,,,2021-02-21_13h37.15.299,PVT builder,60,14.0,,,14,2020.1.3,1,0,15,15,0
6.733434027,MacIntel,space,0.303,,,2021-02-21_13h37.15.299,PVT builder,60,14.0,"[""space""]",[6.2190000000000225],14,2020.1.3,1,0,16,16,0
2.309240069,MacIntel,space,0.44,,,2021-02-21_13h37.15.299,PVT builder,60,14.0,,,14,2020.1.3,1,0,17,17,0
2.853134476,MacIntel,space,0.32299999999999995,,,2021-02-21_13h37.15.299,PVT builder,60,14.0,,,14,2020.1.3,1,0,18,18,0
4.676581166,MacIntel,space,0.266,,,2021-02-21_13h37.15.299,PVT builder,60,14.0,,,14,2020.1.3,1,0,19,19,0
4.0205475260000005,MacIntel,space,0.324,,,2021-02-21_13h37.15.299,PVT builder,60,14.0,,,14,2020.1.3,1,0,20,20,0
3.152402557,MacIntel,space,0.268,,,2021-02-21_13h37.15.299,PVT builder,60,14.0,,,14,2020.1.3,1,0,21,21,0
7.508457196,MacIntel,space,0.40299999999999997,,,2021-02-21_13h37.15.299,PVT builder,60,14.0,,,14,2020.1.3,1,0,22,22,0
4.092493279,MacIntel,space,0.285,,,2021-02-21_13h37.15.299,PVT builder,60,14.0,,,14,2020.1.3,1,0,23,23,0
6.553904494,MacIntel,space,0.304,,,2021-02-21_13h37.15.299,PVT builder,60,14.0,"[""space""]",[4.060000000000002],14,2020.1.3,1,0,24,24,0
7.169943459,MacIntel,space,0.386,,,2021-02-21_13h37.15.299,PVT builder,60,14.0,,,14,2020.1.3,1,0,25,25,0
6.35263654,MacIntel,space,0.252,,,2021-02-21_13h37.15.299,PVT builder,60,14.0,,,14,2020.1.3,1,0,26,26,0
6.540507002999999,MacIntel,space,0.35100000000000003,,,2021-02-21_13h37.15.299,PVT builder,60,14.0,,,14,2020.1.3,1,0,27,27,0
9.422158416,MacIntel,space,0.293,,,2021-02-21_13h37.15.299,PVT builder,60,14.0,,,14,2020.1.3,1,0,28,28,0
8.373569106,MacIntel,space,0.371,,,2021-02-21_13h37.15.299,PVT builder,60,14.0,,,14,2020.1.3,1,0,29,29,0
3.657189957,MacIntel,space,0.35200000000000004,,,2021-02-21_13h37.15.299,PVT builder,60,14.0,,,14,2020.1.3,1,0,30,30,0
9.884671475,MacIntel,space,0.35100000000000003,,,2021-02-21_13h37.15.299,PVT builder,60,14.0,,,14,2020.1.3,1,0,31,31,0
6.089583465,MacIntel,space,0.42,,,2021-02-21_13h37.15.299,PVT builder,60,14.0,,,14,2020.1.3,1,0,32,32,0
9.737537511000001,MacIntel,space,0.419,,,2021-02-21_13h37.15.299,PVT builder,60,14.0,"[""space""]",[4.02800000000002],14,2020.1.3,1,0,33,33,0
9.756097852,MacIntel,space,0.373,,,2021-02-21_13h37.15.299,PVT builder,60,14.0,,,14,2020.1.3,1,0,34,34,0
7.124993616,MacIntel,space,0.34,,,2021-02-21_13h37.15.299,PVT builder,60,14.0,,,14,2020.1.3,1,0,35,35,0
2.863076048,MacIntel,space,0.361,,,2021-02-21_13h37.15.299,PVT builder,60,14.0,,,14,2020.1.3,1,0,36,36,0
7.47376249,MacIntel,space,0.303,,,2021-02-21_13h37.15.299,PVT builder,60,14.0,,,14,2020.1.3,1,0,37,37,0
6.796482162,MacIntel,space,0.317,,,2021-02-21_13h37.15.299,PVT builder,60,14.0,,,14,2020.1.3,1,0,38,38,0
4.732737951,MacIntel,space,0.29,,,2021-02-21_13h37.15.299,PVT builder,60,14.0,,,14,2020.1.3,1,0,39,39,0
2.712063741,MacIntel,space,0.342,,,2021-02-21_13h37.15.299,PVT builder,60,14.0,,,14,2020.1.3,1,0,40,40,0
6.781887848999999,MacIntel,space,0.391,,,2021-02-21_13h37.15.299,PVT builder,60,14.0,,,14,2020.1.3,1,0,41,41,0
3.790624377,MacIntel,space,0.34,,,2021-02-21_13h37.15.299,PVT builder,60,14.0,,,14,2020.1.3,1,0,42,42,0
8.210524517,MacIntel,space,0.45,,,2021-02-21_13h37.15.299,PVT builder,60,14.0,,,14,2020.1.3,1,0,43,43,0
3.42060338,MacIntel,space,0.389,,,2021-02-21_13h37.15.299,PVT builder,60,14.0,,,14,2020.1.3,1,0,44,44,0
7.9077448839999995,MacIntel,space,0.303,,,2021-02-21_13h37.15.299,PVT builder,60,14.0,,,14,2020.1.3,1,0,45,45,0
7.424489637000001,MacIntel,space,0.392,,,2021-02-21_13h37.15.299,PVT builder,60,14.0,,,14,2020.1.3,1,0,46,46,0
5.199616572,MacIntel,space,0.358,,,2021-02-21_13h37.15.299,PVT builder,60,14.0,,,14,2020.1.3,1,0,47,47,0
5.2825694610000005,MacIntel,space,0.40700000000000003,,,2021-02-21_13h37.15.299,PVT builder,60,14.0,,,14,2020.1.3,1,0,48,48,0
2.350009944,MacIntel,space,0.473,,,2021-02-21_13h37.15.299,PVT builder,60,14.0,,,14,2020.1.3,1,0,49,49,0
3.384482218,MacIntel,space,0.353,,,2021-02-21_13h37.15.299,PVT builder,60,14.0,,,14,2020.1.3,1,0,50,50,0
8.297510993,MacIntel,space,0.408,,,2021-02-21_13h37.15.299,PVT builder,60,14.0,,,14,2020.1.3,1,0,51,51,0
6.682381401000001,MacIntel,space,0.39,,,2021-02-21_13h37.15.299,PVT builder,60,14.0,,,14,2020.1.3,1,0,52,52,0
2.730934383,MacIntel,space,0.406,,,2021-02-21_13h37.15.299,PVT builder,60,14.0,,,14,2020.1.3,1,0,53,53,0
4.529583369,MacIntel,space,0.308,,,2021-02-21_13h37.15.299,PVT builder,60,14.0,,,14,2020.1.3,1,0,54,54,0
8.415663213,MacIntel,space,0.355,,,2021-02-21_13h37.15.299,PVT builder,60,14.0,,,14,2020.1.3,1,0,55,55,0
3.1116713160000002,MacIntel,space,0.42,,,2021-02-21_13h37.15.299,PVT builder,60,14.0,,,14,2020.1.3,1,0,56,56,0
3.664186255,MacIntel,space,0.442,,,2021-02-21_13h37.15.299,PVT builder,60,14.0,,,14,2020.1.3,1,0,57,57,0
6.300157935,MacIntel,space,0.342,,,2021-02-21_13h37.15.299,PVT builder,60,14.0,,,14,2020.1.3,1,0,58,58,0
2.4605086309999997,MacIntel,space,0.519,,,2021-02-21_13h37.15.299,PVT builder,60,14.0,,,14,2020.1.3,1,0,59,59,0
9.715230291000001,MacIntel,space,0.402,,,2021-02-21_13h37.15.299,PVT builder,60,14.0,,,14,2020.1.3,1,0,60,60,0
4.8035845010000005,MacIntel,space,0.625,,,2021-02-21_13h37.15.299,PVT builder,60,14.0,,,14,2020.1.3,1,0,61,61,0
6.396181761,MacIntel,space,0.368,,,2021-02-21_13h37.15.299,PVT builder,60,14.0,,,14,2020.1.3,1,0,62,62,0
5.111895219,MacIntel,space,0.319,,,2021-02-21_13h37.15.299,PVT builder,60,14.0,,,14,2020.1.3,1,0,63,63,0
9.048961454,MacIntel,space,0.38799999999999996,,,2021-02-21_13h37.15.299,PVT builder,60,14.0,"[""space"",""space""]","[0.7360000000000468,1.5030000000000427]",14,2020.1.3,1,0,64,64,0
7.401092847,MacIntel,space,0.501,,,2021-02-21_13h37.15.299,PVT builder,60,14.0,,,14,2020.1.3,1,0,65,65,0
3.54744649,MacIntel,space,0.369,,,2021-02-21_13h37.15.299,PVT builder,60,14.0,,,14,2020.1.3,1,0,66,66,0
8.10221024,MacIntel,space,0.33799999999999997,,,2021-02-21_13h37.15.299,PVT builder,60,14.0,,,14,2020.1.3,1,0,67,67,0
4.56813041,MacIntel,space,0.369,,,2021-02-21_13h37.15.299,PVT builder,60,14.0,,,14,2020.1.3,1,0,68,68,0
5.390361947000001,MacIntel,space,0.307,,,2021-02-21_13h37.15.299,PVT builder,60,14.0,,,14,2020.1.3,1,0,69,69,0
8.742127942,MacIntel,space,0.335,,,2021-02-21_13h37.15.299,PVT builder,60,14.0,"[""space""]",[1.4449999999999363],14,2020.1.3,1,0,70,70,0
8.346478322000001,MacIntel,space,0.419,,,2021-02-21_13h37.15.299,PVT builder,60,14.0,,,14,2020.1.3,1,0,71,71,0
5.509076733,MacIntel,space,0.385,,,2021-02-21_13h37.15.299,PVT builder,60,14.0,,,14,2020.1.3,1,0,72,72,0
5.161893575,MacIntel,space,0.456,,,2021-02-21_13h37.15.299,PVT builder,60,14.0,,,14,2020.1.3,1,0,73,73,0
8.86232407,MacIntel,space,0.307,,,2021-02-21_13h37.15.299,PVT builder,60,14.0,,,14,2020.1.3,1,0,74,74,0
6.469619428,MacIntel,space,0.385,,,2021-02-21_13h37.15.299,PVT builder,60,14.0,"[""space""]",[4.385999999999967],14,2020.1.3,1,0,75,75,0
3.64327877,MacIntel,space,0.536,,,2021-02-21_13h37.15.299,PVT builder,60,14.0,,,14,2020.1.3,1,0,76,76,0
6.9914889360000005,MacIntel,space,0.46799999999999997,,,2021-02-21_13h37.15.299,PVT builder,60,14.0,,,14,2020.1.3,1,0,77,77,0
6.944054959,MacIntel,space,0.40399999999999997,,,2021-02-21_13h37.15.299,PVT builder,60,14.0,,,14,2020.1.3,1,0,78,78,0
6.892239823,MacIntel,space,0.405,,,2021-02-21_13h37.15.299,PVT builder,60,14.0,,,14,2020.1.3,1,0,79,79,0
8.915126113,MacIntel,space,0.46799999999999997,,,2021-02-21_13h37.15.299,PVT builder,60,14.0,,,14,2020.1.3,1,0,80,80,0
7.300901355,MacIntel,space,0.49200000000000005,,,2021-02-21_13h37.15.299,PVT builder,60,14.0,,,14,2020.1.3,1,0,81,81,0
7.124722745,MacIntel,space,0.406615,space,16.438885,2021-02-21_13h41.37.621,PVT builder,60,16.0,,,16,2020.1.3,1,0,0,0,0
9.720225463,MacIntel,space,0.36596999999999996,,,2021-02-21_13h41.37.621,PVT builder,60,16.0,,,16,2020.1.3,1,0,1,1,0
2.507180534,MacIntel,space,0.357245,,,2021-02-21_13h41.37.621,PVT builder,60,16.0,,,16,2020.1.3,1,0,2,2,0
2.543788852,MacIntel,space,0.28418499999999997,,,2021-02-21_13h41.37.621,PVT builder,60,16.0,,,16,2020.1.3,1,0,3,3,0
8.716079513,MacIntel,space,0.269735,,,2021-02-21_13h41.37.621,PVT builder,60,16.0,,,16,2020.1.3,1,0,4,4,0
9.571707925,MacIntel,space,0.35505,,,2021-02-21_13h41.37.621,PVT builder,60,16.0,,,16,2020.1.3,1,0,5,5,0
2.088822501,MacIntel,space,0.434985,,,2021-02-21_13h41.37.621,PVT builder,60,16.0,,,16,2020.1.3,1,0,6,6,0
9.221898524,MacIntel,space,0.286605,,,2021-02-21_13h41.37.621,PVT builder,60,16.0,,,16,2020.1.3,1,0,7,7,0
7.199129886000001,MacIntel,space,0.31645,,,2021-02-21_13h41.37.621,PVT builder,60,16.0,"[""space""]",[5.048789999971632],16,2020.1.3,1,0,8,8,0
9.339288091,MacIntel,space,0.302695,,,2021-02-21_13h41.37.621,PVT builder,60,16.0,,,16,2020.1.3,1,0,9,9,0
7.671782385,MacIntel,space,0.31818,,,2021-02-21_13h41.37.621,PVT builder,60,16.0,,,16,2020.1.3,1,0,10,10,0
5.95596504,MacIntel,space,0.31655500000000003,,,2021-02-21_13h41.37.621,PVT builder,60,16.0,"[""space""]",[4.11695499997586],16,2020.1.3,1,0,11,11,0
7.5106499520000005,MacIntel,space,0.291275,,,2021-02-21_13h41.37.621,PVT builder,60,16.0,,,16,2020.1.3,1,0,12,12,0
3.2684955560000004,MacIntel,space,0.41556000000000004,,,2021-02-21_13h41.37.621,PVT builder,60,16.0,,,16,2020.1.3,1,0,13,13,0
2.2191431280000002,MacIntel,space,0.35081999999999997,,,2021-02-21_13h41.37.621,PVT builder,60,16.0,,,16,2020.1.3,1,0,14,14,0
9.66973618,MacIntel,space,0.354655,,,2021-02-21_13h41.37.621,PVT builder,60,16.0,,,16,2020.1.3,1,0,15,15,0
4.448983051,MacIntel,space,0.316705,,,2021-02-21_13h41.37.621,PVT builder,60,16.0,,,16,2020.1.3,1,0,16,16,0
4.867940077,MacIntel,space,0.31873,,,2021-02-21_13h41.37.621,PVT builder,60,16.0,,,16,2020.1.3,1,0,17,17,0
8.767029588,MacIntel,space,0.340645,,,2021-02-21_13h41.37.621,PVT builder,60,16.0,,,16,2020.1.3,1,0,18,18,0
3.051980841,MacIntel,space,0.354565,,,2021-02-21_13h41.37.621,PVT builder,60,16.0,,,16,2020.1.3,1,0,19,19,0
2.405927858,MacIntel,space,0.2849,,,2021-02-21_13h41.37.621,PVT builder,60,16.0,,,16,2020.1.3,1,0,20,20,0
6.886368028,MacIntel,space,0.289515,,,2021-02-21_13h41.37.621,PVT builder,60,16.0,,,16,2020.1.3,1,0,21,21,0
5.547156957,MacIntel,space,0.33545,,,2021-02-21_13h41.37.621,PVT builder,60,16.0,,,16,2020.1.3,1,0,22,22,0
5.839578221,MacIntel,space,0.26844,,,2021-02-21_13h41.37.621,PVT builder,60,16.0,,,16,2020.1.3,1,0,23,23,0
4.485639397,MacIntel,space,0.26705,,,2021-02-21_13h41.37.621,PVT builder,60,16.0,,,16,2020.1.3,1,0,24,24,0
4.716366858,MacIntel,space,0.25151999999999997,,,2021-02-21_13h41.37.621,PVT builder,60,16.0,,,16,2020.1.3,1,0,25,25,0
4.137454836,MacIntel,space,0.26676500000000003,,,2021-02-21_13h41.37.621,PVT builder,60,16.0,,,16,2020.1.3,1,0,26,26,0
8.939334197,MacIntel,space,0.28712,,,2021-02-21_13h41.37.621,PVT builder,60,16.0,"[""space""]",[1.0168150000390597],16,2020.1.3,1,0,27,27,0
7.472160037999999,MacIntel,space,0.32009,,,2021-02-21_13h41.37.621,PVT builder,60,16.0,,,16,2020.1.3,1,0,28,28,0
9.469672354,MacIntel,space,0.33570500000000003,,,2021-02-21_13h41.37.621,PVT builder,60,16.0,,,16,2020.1.3,1,0,29,29,0
5.812977824,MacIntel,space,0.321725,,,2021-02-21_13h41.37.621,PVT builder,60,16.0,,,16,2020.1.3,1,0,30,30,0
2.9970948280000003,MacIntel,space,0.371055,,,2021-02-21_13h41.37.621,PVT builder,60,16.0,,,16,2020.1.3,1,0,31,31,0
9.487733992999999,MacIntel,space,0.35863,,,2021-02-21_13h41.37.621,PVT builder,60,16.0,,,16,2020.1.3,1,0,32,32,0
5.908182061000001,MacIntel,space,0.35268499999999997,,,2021-02-21_13h41.37.621,PVT builder,60,16.0,,,16,2020.1.3,1,0,33,33,0
5.786303159,MacIntel,space,0.371925,,,2021-02-21_13h41.37.621,PVT builder,60,16.0,,,16,2020.1.3,1,0,34,34,0
9.34879514,MacIntel,space,0.26665500000000003,,,2021-02-21_13h41.37.621,PVT builder,60,16.0,,,16,2020.1.3,1,0,35,35,0
2.622500053,MacIntel,space,0.401435,,,2021-02-21_13h41.37.621,PVT builder,60,16.0,,,16,2020.1.3,1,0,36,36,0
7.244420812,MacIntel,space,0.28558,,,2021-02-21_13h41.37.621,PVT builder,60,16.0,,,16,2020.1.3,1,0,37,37,0
2.015343559,MacIntel,space,0.269805,,,2021-02-21_13h41.37.621,PVT builder,60,16.0,,,16,2020.1.3,1,0,38,38,0
9.804564936,MacIntel,space,0.35486999999999996,,,2021-02-21_13h41.37.621,PVT builder,60,16.0,,,16,2020.1.3,1,0,39,39,0
3.670286932,MacIntel,space,0.401125,,,2021-02-21_13h41.37.621,PVT builder,60,16.0,,,16,2020.1.3,1,0,40,40,0
9.573741389,MacIntel,space,0.323435,,,2021-02-21_13h41.37.621,PVT builder,60,16.0,,,16,2020.1.3,1,0,41,41,0
9.82560745,MacIntel,space,0.33625,,,2021-02-21_13h41.37.621,PVT builder,60,16.0,,,16,2020.1.3,1,0,42,42,0
5.051713699,MacIntel,space,0.43491,,,2021-02-21_13h41.37.621,PVT builder,60,16.0,,,16,2020.1.3,1,0,43,43,0
8.811577541,MacIntel,space,0.307815,,,2021-02-21_13h41.37.621,PVT builder,60,16.0,,,16,2020.1.3,1,0,44,44,0
2.753350775,MacIntel,space,0.32273,,,2021-02-21_13h41.37.621,PVT builder,60,16.0,,,16,2020.1.3,1,0,45,45,0
3.5403917089999997,MacIntel,space,0.33419,,,2021-02-21_13h41.37.621,PVT builder,60,16.0,,,16,2020.1.3,1,0,46,46,0
6.714447412,MacIntel,space,0.307625,,,2021-02-21_13h41.37.621,PVT builder,60,16.0,,,16,2020.1.3,1,0,47,47,0
6.166392147000001,MacIntel,space,0.317855,,,2021-02-21_13h41.37.621,PVT builder,60,16.0,,,16,2020.1.3,1,0,48,48,0
6.825216827999999,MacIntel,space,0.34986999999999996,,,2021-02-21_13h41.37.621,PVT builder,60,16.0,,,16,2020.1.3,1,0,49,49,0
3.6126461219999997,MacIntel,space,0.339345,,,2021-02-21_13h41.37.621,PVT builder,60,16.0,,,16,2020.1.3,1,0,50,50,0
4.004409695,MacIntel,space,0.320895,,,2021-02-21_13h41.37.621,PVT builder,60,16.0,,,16,2020.1.3,1,0,51,51,0
3.1795563060000003,MacIntel,space,0.33391,,,2021-02-21_13h41.37.621,PVT builder,60,16.0,,,16,2020.1.3,1,0,52,52,0
6.174541662999999,MacIntel,space,0.25379,,,2021-02-21_13h41.37.621,PVT builder,60,16.0,,,16,2020.1.3,1,0,53,53,0
9.056759128,MacIntel,space,0.46916499999999994,,,2021-02-21_13h41.37.621,PVT builder,60,16.0,"[""space""]",[7.733499999972992],16,2020.1.3,1,0,54,54,0
2.1928220130000002,MacIntel,space,0.352535,,,2021-02-21_13h41.37.621,PVT builder,60,16.0,,,16,2020.1.3,1,0,55,55,0
4.5858727230000005,MacIntel,space,0.29916,,,2021-02-21_13h41.37.621,PVT builder,60,16.0,,,16,2020.1.3,1,0,56,56,0
5.065206899,MacIntel,space,0.33216999999999997,,,2021-02-21_13h41.37.621,PVT builder,60,16.0,,,16,2020.1.3,1,0,57,57,0
4.102476567,MacIntel,space,0.38442,,,2021-02-21_13h41.37.621,PVT builder,60,16.0,,,16,2020.1.3,1,0,58,58,0
8.059651009,MacIntel,space,0.3385,,,2021-02-21_13h41.37.621,PVT builder,60,16.0,,,16,2020.1.3,1,0,59,59,0
5.423818172000001,MacIntel,space,0.41816499999999995,,,2021-02-21_13h41.37.621,PVT builder,60,16.0,,,16,2020.1.3,1,0,60,60,0
5.897622727000001,MacIntel,space,0.35302,,,2021-02-21_13h41.37.621,PVT builder,60,16.0,,,16,2020.1.3,1,0,61,61,0
6.1053487010000005,MacIntel,space,0.367705,,,2021-02-21_13h41.37.621,PVT builder,60,16.0,,,16,2020.1.3,1,0,62,62,0
4.379864058,MacIntel,space,0.318315,,,2021-02-21_13h41.37.621,PVT builder,60,16.0,,,16,2020.1.3,1,0,63,63,0
8.831942349,MacIntel,space,0.30396,,,2021-02-21_13h41.37.621,PVT builder,60,16.0,,,16,2020.1.3,1,0,64,64,0
2.961243543,MacIntel,space,0.38466999999999996,,,2021-02-21_13h41.37.621,PVT builder,60,16.0,,,16,2020.1.3,1,0,65,65,0
3.133880674,MacIntel,space,0.30215,,,2021-02-21_13h41.37.621,PVT builder,60,16.0,,,16,2020.1.3,1,0,66,66,0
9.810916564,MacIntel,space,0.32156999999999997,,,2021-02-21_13h41.37.621,PVT builder,60,16.0,,,16,2020.1.3,1,0,67,67,0
7.013028149,MacIntel,space,0.318485,,,2021-02-21_13h41.37.621,PVT builder,60,16.0,,,16,2020.1.3,1,0,68,68,0
4.366716126,MacIntel,space,0.290085,,,2021-02-21_13h41.37.621,PVT builder,60,16.0,,,16,2020.1.3,1,0,69,69,0
7.111051987000001,MacIntel,space,0.355205,,,2021-02-21_13h41.37.621,PVT builder,60,16.0,,,16,2020.1.3,1,0,70,70,0
7.538801811,MacIntel,space,0.368255,,,2021-02-21_13h41.37.621,PVT builder,60,16.0,,,16,2020.1.3,1,0,71,71,0
4.722326563999999,MacIntel,space,0.28458,,,2021-02-21_13h41.37.621,PVT builder,60,16.0,,,16,2020.1.3,1,0,72,72,0
2.017378608,MacIntel,space,0.34964,,,2021-02-21_13h41.37.621,PVT builder,60,16.0,,,16,2020.1.3,1,0,73,73,0
8.29882088,MacIntel,space,0.419595,,,2021-02-21_13h41.37.621,PVT builder,60,16.0,,,16,2020.1.3,1,0,74,74,0
2.2559164419999997,MacIntel,space,0.465135,,,2021-02-21_13h41.37.621,PVT builder,60,16.0,,,16,2020.1.3,1,0,75,75,0
4.488985846,MacIntel,space,0.5462899999999999,,,2021-02-21_13h41.37.621,PVT builder,60,16.0,,,16,2020.1.3,1,0,76,76,0
7.149143744,MacIntel,space,0.33354,,,2021-02-21_13h41.37.621,PVT builder,60,16.0,,,16,2020.1.3,1,0,77,77,0
8.794942136,MacIntel,space,0.29946,,,2021-02-21_13h41.37.621,PVT builder,60,16.0,,,16,2020.1.3,1,0,78,78,0
6.404240343,MacIntel,space,0.33814,,,2021-02-21_13h41.37.621,PVT builder,60,16.0,,,16,2020.1.3,1,0,79,79,0
6.527232657000001,MacIntel,space,0.30078,,,2021-02-21_13h41.37.621,PVT builder,60,16.0,,,16,2020.1.3,1,0,80,80,0
7.756162687000001,MacIntel,space,0.394945,,,2021-02-21_13h41.37.621,PVT builder,60,16.0,,,16,2020.1.3,1,0,81,81,0
9.408315124,MacIntel,space,161.197425,space,4.27355,2021-02-22_19h16.29.164,PVT builder,60,18.0,,,18,2020.1.3,1,0,0,0,0
5.762995227,MacIntel,space,55.37441,,,2021-02-22_19h16.29.164,PVT builder,60,18.0,,,18,2020.1.3,1,0,1,1,0
9.198878524,MacIntel,space,7.304275,,,2021-02-22_19h16.29.164,PVT builder,60,18.0,,,18,2020.1.3,1,0,2,2,0
4.023249485,MacIntel,space,6.637135000000001,,,2021-02-22_19h16.29.164,PVT builder,60,18.0,,,18,2020.1.3,1,0,3,3,0
5.785908895,MacIntel,space,1.542465,,,2021-02-22_19h16.29.164,PVT builder,60,18.0,,,18,2020.1.3,1,0,4,4,0
5.565638775,MacIntel,space,1.42307,,,2021-02-22_19h16.29.164,PVT builder,60,18.0,,,18,2020.1.3,1,0,5,5,0
9.785402716,MacIntel,space,0.9652350000000001,,,2021-02-22_19h16.29.164,PVT builder,60,18.0,,,18,2020.1.3,1,0,6,6,0
3.401763476,MacIntel,space,0.99121,,,2021-02-22_19h16.29.164,PVT builder,60,18.0,,,18,2020.1.3,1,0,7,7,0
6.55189913,MacIntel,space,0.973815,,,2021-02-22_19h16.29.164,PVT builder,60,18.0,,,18,2020.1.3,1,0,8,8,0
8.454723397,MacIntel,space,1.1859950000000001,,,2021-02-22_19h16.29.164,PVT builder,60,18.0,,,18,2020.1.3,1,0,9,9,0
9.983208072,MacIntel,space,1.034565,,,2021-02-22_19h16.29.164,PVT builder,60,18.0,,,18,2020.1.3,1,0,10,10,0
6.9648494770000005,MacIntel,space,1.2535100000000001,,,2021-02-22_19h16.29.164,PVT builder,60,18.0,,,18,2020.1.3,1,0,11,11,0
8.030894362,MacIntel,space,0.91075,,,2021-02-22_19h16.29.164,PVT builder,60,18.0,,,18,2020.1.3,1,0,12,12,0
8.08262926,MacIntel,space,0.635235,,,2021-02-22_19h16.29.164,PVT builder,60,18.0,,,18,2020.1.3,1,0,13,13,0
5.377425702999999,MacIntel,space,1.215155,,,2021-02-22_19h16.29.164,PVT builder,60,18.0,,,18,2020.1.3,1,0,14,14,0
8.876278027,MacIntel,space,1.04046,,,2021-02-22_19h16.29.164,PVT builder,60,18.0,,,18,2020.1.3,1,0,15,15,0
6.580794206,MacIntel,space,0.9825649999999999,,,2021-02-22_19h16.29.164,PVT builder,60,18.0,,,18,2020.1.3,1,0,16,16,0
2.451483498,MacIntel,space,1.12634,,,2021-02-22_19h16.29.164,PVT builder,60,18.0,,,18,2020.1.3,1,0,17,17,0
3.3277597880000003,MacIntel,space,1.283175,,,2021-02-22_19h16.29.164,PVT builder,60,18.0,,,18,2020.1.3,1,0,18,18,0
6.612032354,MacIntel,space,0.98234,,,2021-02-22_19h16.29.164,PVT builder,60,18.0,,,18,2020.1.3,1,0,19,19,0
6.658430338,MacIntel,space,0.96704,,,2021-02-22_19h16.29.164,PVT builder,60,18.0,,,18,2020.1.3,1,0,20,20,0
6.06023512,MacIntel,space,1.036725,,,2021-02-22_19h16.29.164,PVT builder,60,18.0,,,18,2020.1.3,1,0,21,21,0
4.1776218819999995,MacIntel,space,1.050125,,,2021-02-22_19h16.29.164,PVT builder,60,18.0,,,18,2020.1.3,1,0,22,22,0
3.085164595,MacIntel,space,0.866185,,,2021-02-22_19h16.29.164,PVT builder,60,18.0,,,18,2020.1.3,1,0,23,23,0
8.601326971,MacIntel,space,1.2010299999999998,,,2021-02-22_19h16.29.164,PVT builder,60,18.0,,,18,2020.1.3,1,0,24,24,0
8.483310067,MacIntel,space,0.8986299999999999,,,2021-02-22_19h16.29.164,PVT builder,60,18.0,,,18,2020.1.3,1,0,25,25,0
8.323826743,MacIntel,space,1.18754,,,2021-02-22_19h16.29.164,PVT builder,60,18.0,,,18,2020.1.3,1,0,26,26,0
8.212066471,MacIntel,space,1.316075,,,2021-02-22_19h16.29.164,PVT builder,60,18.0,,,18,2020.1.3,1,0,27,27,0
4.201388821,MacIntel,space,1.06684,,,2021-02-22_19h16.29.164,PVT builder,60,18.0,,,18,2020.1.3,1,0,28,28,0
5.653056883,MacIntel,space,1.151255,,,2021-02-22_19h16.29.164,PVT builder,60,18.0,,,18,2020.1.3,1,0,29,29,0
3.367543223,MacIntel,space,1.23633,,,2021-02-22_19h16.29.164,PVT builder,60,18.0,,,18,2020.1.3,1,0,30,30,0
9.613784809,MacIntel,space,1.2898,,,2021-02-22_19h16.29.164,PVT builder,60,18.0,,,18,2020.1.3,1,0,31,31,0
2.526526702,MacIntel,space,1.083915,,,2021-02-22_19h16.29.164,PVT builder,60,18.0,,,18,2020.1.3,1,0,32,32,0
7.470429873,MacIntel,space,1.14929,,,2021-02-22_19h16.29.164,PVT builder,60,18.0,,,18,2020.1.3,1,0,33,33,0
5.492609373,MacIntel,space,1.33276,,,2021-02-22_19h16.29.164,PVT builder,60,18.0,,,18,2020.1.3,1,0,34,34,0
3.501634208,MacIntel,space,1.01759,,,2021-02-22_19h16.29.164,PVT builder,60,18.0,,,18,2020.1.3,1,0,35,35,0
3.6660445160000004,MacIntel,space,0.48453,,,2021-02-22_19h16.29.164,PVT builder,60,18.0,,,18,2020.1.3,1,0,36,36,0
2.722203087,MacIntel,space,0.36611,,,2021-02-22_19h16.29.164,PVT builder,60,18.0,,,18,2020.1.3,1,0,37,37,0
9.453342503,MacIntel,space,0.31716500000000003,,,2021-02-22_19h16.29.164,PVT builder,60,18.0,,,18,2020.1.3,1,0,38,38,0
3.6624940319999997,MacIntel,space,0.403065,,,2021-02-22_19h16.29.164,PVT builder,60,18.0,,,18,2020.1.3,1,0,39,39,0
2.882615637,MacIntel,space,0.48655,,,2021-02-22_19h16.29.164,PVT builder,60,18.0,,,18,2020.1.3,1,0,40,40,0
7.861285154,MacIntel,space,0.303975,,,2021-02-22_19h16.29.164,PVT builder,60,18.0,,,18,2020.1.3,1,0,41,41,0
4.741903456,MacIntel,space,0.43522,,,2021-02-22_19h16.29.164,PVT builder,60,18.0,,,18,2020.1.3,1,0,42,42,0
4.215088742,MacIntel,space,0.453175,,,2021-02-22_19h16.29.164,PVT builder,60,18.0,,,18,2020.1.3,1,0,43,43,0
6.7097406379999995,MacIntel,space,0.43258,,,2021-02-22_19h16.29.164,PVT builder,60,18.0,,,18,2020.1.3,1,0,44,44,0
9.828248992999999,MacIntel,space,0.319725,,,2021-02-22_19h16.29.164,PVT builder,60,18.0,,,18,2020.1.3,1,0,45,45,0
3.935691126,MacIntel,space,0.355,space,9.532,2021-02-10_16h01.32.054,PVT builder,60,19.0,,,19,2020.1.3,1,0,0,0,0
6.488701423999999,MacIntel,space,0.301,,,2021-02-10_16h01.32.054,PVT builder,60,19.0,,,19,2020.1.3,1,0,1,1,0
6.7915057,MacIntel,space,0.31,,,2021-02-10_16h01.32.054,PVT builder,60,19.0,,,19,2020.1.3,1,0,2,2,0
5.401494836,MacIntel,space,0.289,,,2021-02-10_16h01.32.054,PVT builder,60,19.0,,,19,2020.1.3,1,0,3,3,0
7.673964423999999,MacIntel,space,0.285,,,2021-02-10_16h01.32.054,PVT builder,60,19.0,,,19,2020.1.3,1,0,4,4,0
2.590523611,MacIntel,space,0.424,,,2021-02-10_16h01.32.054,PVT builder,60,19.0,,,19,2020.1.3,1,0,5,5,0
4.9450652239999995,MacIntel,space,0.275,,,2021-02-10_16h01.32.054,PVT builder,60,19.0,,,19,2020.1.3,1,0,6,6,0
6.620265333,MacIntel,space,0.309,,,2021-02-10_16h01.32.054,PVT builder,60,19.0,,,19,2020.1.3,1,0,7,7,0
2.17001079,MacIntel,space,0.27699999999999997,,,2021-02-10_16h01.32.054,PVT builder,60,19.0,,,19,2020.1.3,1,0,8,8,0
6.989605871,MacIntel,space,0.28600000000000003,,,2021-02-10_16h01.32.054,PVT builder,60,19.0,,,19,2020.1.3,1,0,9,9,0
5.196862964,MacIntel,space,0.29100000000000004,,,2021-02-10_16h01.32.054,PVT builder,60,19.0,,,19,2020.1.3,1,0,10,10,0
3.163330465,MacIntel,space,0.27899999999999997,,,2021-02-10_16h01.32.054,PVT builder,60,19.0,,,19,2020.1.3,1,0,11,11,0
2.526010892,MacIntel,space,0.252,,,2021-02-10_16h01.32.054,PVT builder,60,19.0,,,19,2020.1.3,1,0,12,12,0
6.637626598,MacIntel,space,0.27,,,2021-02-10_16h01.32.054,PVT builder,60,19.0,,,19,2020.1.3,1,0,13,13,0
7.591053497000001,MacIntel,space,0.28600000000000003,,,2021-02-10_16h01.32.054,PVT builder,60,19.0,,,19,2020.1.3,1,0,14,14,0
3.4215655330000003,MacIntel,space,0.318,,,2021-02-10_16h01.32.054,PVT builder,60,19.0,,,19,2020.1.3,1,0,15,15,0
9.72914051,MacIntel,space,0.327,,,2021-02-10_16h01.32.054,PVT builder,60,19.0,,,19,2020.1.3,1,0,16,16,0
9.321696263,MacIntel,space,0.317,,,2021-02-10_16h01.32.054,PVT builder,60,19.0,,,19,2020.1.3,1,0,17,17,0
7.098896041000001,MacIntel,space,0.259,,,2021-02-10_16h01.32.054,PVT builder,60,19.0,,,19,2020.1.3,1,0,18,18,0
2.179402086,MacIntel,space,0.35700000000000004,,,2021-02-10_16h01.32.054,PVT builder,60,19.0,,,19,2020.1.3,1,0,19,19,0
2.529697981,MacIntel,space,0.26899999999999996,,,2021-02-10_16h01.32.054,PVT builder,60,19.0,,,19,2020.1.3,1,0,20,20,0
4.835931994,MacIntel,space,0.257,,,2021-02-10_16h01.32.054,PVT builder,60,19.0,,,19,2020.1.3,1,0,21,21,0
5.944611621,MacIntel,space,0.307,,,2021-02-10_16h01.32.054,PVT builder,60,19.0,,,19,2020.1.3,1,0,22,22,0
9.245522675,MacIntel,space,0.284,,,2021-02-10_16h01.32.054,PVT builder,60,19.0,,,19,2020.1.3,1,0,23,23,0
3.973587193,MacIntel,space,0.29100000000000004,,,2021-02-10_16h01.32.054,PVT builder,60,19.0,,,19,2020.1.3,1,0,24,24,0
9.244743789,MacIntel,space,0.284,,,2021-02-10_16h01.32.054,PVT builder,60,19.0,,,19,2020.1.3,1,0,25,25,0
5.55393289,MacIntel,space,0.304,,,2021-02-10_16h01.32.054,PVT builder,60,19.0,"[""space""]",[3.3700000000000045],19,2020.1.3,1,0,26,26,0
8.551843279,MacIntel,space,0.311,,,2021-02-10_16h01.32.054,PVT builder,60,19.0,,,19,2020.1.3,1,0,27,27,0
9.518372331,MacIntel,space,0.28300000000000003,,,2021-02-10_16h01.32.054,PVT builder,60,19.0,,,19,2020.1.3,1,0,28,28,0
8.456039125,MacIntel,space,0.285,,,2021-02-10_16h01.32.054,PVT builder,60,19.0,,,19,2020.1.3,1,0,29,29,0
4.986225009,MacIntel,space,0.318,,,2021-02-10_16h01.32.054,PVT builder,60,19.0,,,19,2020.1.3,1,0,30,30,0
9.9278795,MacIntel,space,0.284,,,2021-02-10_16h01.32.054,PVT builder,60,19.0,,,19,2020.1.3,1,0,31,31,0
8.386086593,MacIntel,space,0.32,,,2021-02-10_16h01.32.054,PVT builder,60,19.0,,,19,2020.1.3,1,0,32,32,0
4.305760787,MacIntel,space,0.301,,,2021-02-10_16h01.32.054,PVT builder,60,19.0,,,19,2020.1.3,1,0,33,33,0
6.199845774,MacIntel,space,0.319,,,2021-02-10_16h01.32.054,PVT builder,60,19.0,,,19,2020.1.3,1,0,34,34,0
8.366800456,MacIntel,space,0.28300000000000003,,,2021-02-10_16h01.32.054,PVT builder,60,19.0,,,19,2020.1.3,1,0,35,35,0
8.701795556,MacIntel,space,0.285,,,2021-02-10_16h01.32.054,PVT builder,60,19.0,,,19,2020.1.3,1,0,36,36,0
9.193391638,MacIntel,space,0.289,,,2021-02-10_16h01.32.054,PVT builder,60,19.0,,,19,2020.1.3,1,0,37,37,0
8.978246418,MacIntel,space,0.302,,,2021-02-10_16h01.32.054,PVT builder,60,19.0,,,19,2020.1.3,1,0,38,38,0
6.832247525,MacIntel,space,0.319,,,2021-02-10_16h01.32.054,PVT builder,60,19.0,,,19,2020.1.3,1,0,39,39,0
9.110279298,MacIntel,space,0.308,,,2021-02-10_16h01.32.054,PVT builder,60,19.0,,,19,2020.1.3,1,0,40,40,0
4.472063254,MacIntel,space,0.368,,,2021-02-10_16h01.32.054,PVT builder,60,19.0,,,19,2020.1.3,1,0,41,41,0
4.708420282,MacIntel,space,0.287,,,2021-02-10_16h01.32.054,PVT builder,60,19.0,,,19,2020.1.3,1,0,42,42,0
6.387795862000001,MacIntel,space,0.307,,,2021-02-10_16h01.32.054,PVT builder,60,19.0,,,19,2020.1.3,1,0,43,43,0
3.338026316,MacIntel,space,0.3,,,2021-02-10_16h01.32.054,PVT builder,60,19.0,,,19,2020.1.3,1,0,44,44,0
4.922964847,MacIntel,space,0.28600000000000003,,,2021-02-10_16h01.32.054,PVT builder,60,19.0,,,19,2020.1.3,1,0,45,45,0
4.394890126,MacIntel,space,0.3,,,2021-02-10_16h01.32.054,PVT builder,60,19.0,,,19,2020.1.3,1,0,46,46,0
9.108404942,MacIntel,space,0.31,,,2021-02-10_16h01.32.054,PVT builder,60,19.0,,,19,2020.1.3,1,0,47,47,0
8.038612032,MacIntel,space,0.304,,,2021-02-10_16h01.32.054,PVT builder,60,19.0,,,19,2020.1.3,1,0,48,48,0
8.368243888,MacIntel,space,0.3,,,2021-02-10_16h01.32.054,PVT builder,60,19.0,,,19,2020.1.3,1,0,49,49,0
9.269428782,MacIntel,space,0.27399999999999997,,,2021-02-10_16h01.32.054,PVT builder,60,19.0,,,19,2020.1.3,1,0,50,50,0
4.329042239,MacIntel,space,0.449,,,2021-02-10_16h01.32.054,PVT builder,60,19.0,,,19,2020.1.3,1,0,51,51,0
2.30783539,MacIntel,space,0.318,,,2021-02-10_16h01.32.054,PVT builder,60,19.0,,,19,2020.1.3,1,0,52,52,0
8.734812765,MacIntel,space,0.319,,,2021-02-10_16h01.32.054,PVT builder,60,19.0,,,19,2020.1.3,1,0,53,53,0
3.5478776130000003,MacIntel,space,0.302,,,2021-02-10_16h01.32.054,PVT builder,60,19.0,,,19,2020.1.3,1,0,54,54,0
9.535963382,MacIntel,space,0.35200000000000004,,,2021-02-10_16h01.32.054,PVT builder,60,19.0,,,19,2020.1.3,1,0,55,55,0
8.958310941,MacIntel,space,0.337,,,2021-02-10_16h01.32.054,PVT builder,60,19.0,,,19,2020.1.3,1,0,56,56,0
8.574630342,MacIntel,space,0.308,,,2021-02-10_16h01.32.054,PVT builder,60,19.0,,,19,2020.1.3,1,0,57,57,0
8.707209899,MacIntel,space,0.319,,,2021-02-10_16h01.32.054,PVT builder,60,19.0,,,19,2020.1.3,1,0,58,58,0
4.966531764,MacIntel,space,0.316,,,2021-02-10_16h01.32.054,PVT builder,60,19.0,,,19,2020.1.3,1,0,59,59,0
3.5040788480000002,MacIntel,space,0.301,,,2021-02-10_16h01.32.054,PVT builder,60,19.0,,,19,2020.1.3,1,0,60,60,0
7.5666325070000005,MacIntel,space,0.301,,,2021-02-10_16h01.32.054,PVT builder,60,19.0,,,19,2020.1.3,1,0,61,61,0
7.646950301,MacIntel,space,0.353,,,2021-02-10_16h01.32.054,PVT builder,60,19.0,,,19,2020.1.3,1,0,62,62,0
5.124603798,MacIntel,space,0.385,,,2021-02-10_16h01.32.054,PVT builder,60,19.0,,,19,2020.1.3,1,0,63,63,0
8.941966402,MacIntel,space,0.303,,,2021-02-10_16h01.32.054,PVT builder,60,19.0,,,19,2020.1.3,1,0,64,64,0
3.1479844569999997,MacIntel,space,0.385,,,2021-02-10_16h01.32.054,PVT builder,60,19.0,,,19,2020.1.3,1,0,65,65,0
9.264483631000001,MacIntel,space,0.292,,,2021-02-10_16h01.32.054,PVT builder,60,19.0,,,19,2020.1.3,1,0,66,66,0
6.782414017000001,MacIntel,space,0.28800000000000003,,,2021-02-10_16h01.32.054,PVT builder,60,19.0,,,19,2020.1.3,1,0,67,67,0
4.519015008999999,MacIntel,space,0.259,,,2021-02-10_16h01.32.054,PVT builder,60,19.0,,,19,2020.1.3,1,0,68,68,0
4.704038226000001,MacIntel,space,0.285,,,2021-02-10_16h01.32.054,PVT builder,60,19.0,,,19,2020.1.3,1,0,69,69,0
2.539030657,MacIntel,space,0.307,,,2021-02-10_16h01.32.054,PVT builder,60,19.0,,,19,2020.1.3,1,0,70,70,0
7.081200908,MacIntel,space,0.305,,,2021-02-10_16h01.32.054,PVT builder,60,19.0,,,19,2020.1.3,1,0,71,71,0
4.973570685,MacIntel,space,0.285,,,2021-02-10_16h01.32.054,PVT builder,60,19.0,,,19,2020.1.3,1,0,72,72,0
5.967591558,MacIntel,space,0.28300000000000003,,,2021-02-10_16h01.32.054,PVT builder,60,19.0,,,19,2020.1.3,1,0,73,73,0
3.71659105,MacIntel,space,0.34,,,2021-02-10_16h01.32.054,PVT builder,60,19.0,,,19,2020.1.3,1,0,74,74,0
8.307281676,MacIntel,space,0.289,,,2021-02-10_16h01.32.054,PVT builder,60,19.0,"[""space""]",[4.661000000000058],19,2020.1.3,1,0,75,75,0
9.784201135,MacIntel,space,0.3,,,2021-02-10_16h01.32.054,PVT builder,60,19.0,,,19,2020.1.3,1,0,76,76,0
6.639873447,MacIntel,space,0.307,,,2021-02-10_16h01.32.054,PVT builder,60,19.0,,,19,2020.1.3,1,0,77,77,0
8.346166875,MacIntel,space,0.35200000000000004,,,2021-02-10_16h01.32.054,PVT builder,60,19.0,,,19,2020.1.3,1,0,78,78,0
9.836597539,MacIntel,space,0.385,space,6.454,2021-02-10_18h19.34.837,PVT builder,60,20.0,,,20,2020.1.3,1,0,0,0,0
6.8345249589999995,MacIntel,space,0.389,,,2021-02-10_18h19.34.837,PVT builder,60,20.0,,,20,2020.1.3,1,0,1,1,0
3.0374908169999997,MacIntel,space,0.401,,,2021-02-10_18h19.34.837,PVT builder,60,20.0,,,20,2020.1.3,1,0,2,2,0
4.348943408,MacIntel,space,0.337,,,2021-02-10_18h19.34.837,PVT builder,60,20.0,"[""space""]",[1.2710000000000008],20,2020.1.3,1,0,3,3,0
8.674037569,MacIntel,space,0.335,,,2021-02-10_18h19.34.837,PVT builder,60,20.0,,,20,2020.1.3,1,0,4,4,0
9.781212772,MacIntel,space,0.287,,,2021-02-10_18h19.34.837,PVT builder,60,20.0,,,20,2020.1.3,1,0,5,5,0
8.498398626,MacIntel,space,0.29,,,2021-02-10_18h19.34.837,PVT builder,60,20.0,,,20,2020.1.3,1,0,6,6,0
3.209585909,MacIntel,space,0.29,,,2021-02-10_18h19.34.837,PVT builder,60,20.0,,,20,2020.1.3,1,0,7,7,0
9.995403246,MacIntel,space,0.37200000000000005,,,2021-02-10_18h19.34.837,PVT builder,60,20.0,,,20,2020.1.3,1,0,8,8,0
9.705066831,MacIntel,space,0.324,,,2021-02-10_18h19.34.837,PVT builder,60,20.0,,,20,2020.1.3,1,0,9,9,0
2.115790997,MacIntel,space,0.46,,,2021-02-10_18h19.34.837,PVT builder,60,20.0,,,20,2020.1.3,1,0,10,10,0
2.881849644,MacIntel,space,0.319,,,2021-02-10_18h19.34.837,PVT builder,60,20.0,,,20,2020.1.3,1,0,11,11,0
3.6208757360000003,MacIntel,space,0.28600000000000003,,,2021-02-10_18h19.34.837,PVT builder,60,20.0,,,20,2020.1.3,1,0,12,12,0
5.811873059,MacIntel,space,0.299,,,2021-02-10_18h19.34.837,PVT builder,60,20.0,"[""space""]",[1.781000000000006],20,2020.1.3,1,0,13,13,0
5.110917948,MacIntel,space,0.285,,,2021-02-10_18h19.34.837,PVT builder,60,20.0,,,20,2020.1.3,1,0,14,14,0
7.196100437999999,MacIntel,space,0.302,,,2021-02-10_18h19.34.837,PVT builder,60,20.0,,,20,2020.1.3,1,0,15,15,0
7.098145167,MacIntel,space,0.318,,,2021-02-10_18h19.34.837,PVT builder,60,20.0,,,20,2020.1.3,1,0,16,16,0
8.405263125,MacIntel,space,0.336,,,2021-02-10_18h19.34.837,PVT builder,60,20.0,,,20,2020.1.3,1,0,17,17,0
6.209353675,MacIntel,space,0.273,,,2021-02-10_18h19.34.837,PVT builder,60,20.0,,,20,2020.1.3,1,0,18,18,0
4.3151264739999995,MacIntel,space,0.301,,,2021-02-10_18h19.34.837,PVT builder,60,20.0,,,20,2020.1.3,1,0,19,19,0
9.126847086,MacIntel,space,0.32299999999999995,,,2021-02-10_18h19.34.837,PVT builder,60,20.0,,,20,2020.1.3,1,0,20,20,0
9.853751153,MacIntel,space,0.29,,,2021-02-10_18h19.34.837,PVT builder,60,20.0,,,20,2020.1.3,1,0,21,21,0
9.236097706,MacIntel,space,0.31,,,2021-02-10_18h19.34.837,PVT builder,60,20.0,,,20,2020.1.3,1,0,22,22,0
7.310061,MacIntel,space,0.28600000000000003,,,2021-02-10_18h19.34.837,PVT builder,60,20.0,,,20,2020.1.3,1,0,23,23,0
9.652210867,MacIntel,space,0.308,,,2021-02-10_18h19.34.837,PVT builder,60,20.0,,,20,2020.1.3,1,0,24,24,0
7.427493495,MacIntel,space,0.292,,,2021-02-10_18h19.34.837,PVT builder,60,20.0,,,20,2020.1.3,1,0,25,25,0
2.997320937,MacIntel,space,0.302,,,2021-02-10_18h19.34.837,PVT builder,60,20.0,,,20,2020.1.3,1,0,26,26,0
8.899962934,MacIntel,space,0.284,,,2021-02-10_18h19.34.837,PVT builder,60,20.0,,,20,2020.1.3,1,0,27,27,0
3.77227153,MacIntel,space,0.324,,,2021-02-10_18h19.34.837,PVT builder,60,20.0,,,20,2020.1.3,1,0,28,28,0
7.821571512999999,MacIntel,space,0.33399999999999996,,,2021-02-10_18h19.34.837,PVT builder,60,20.0,,,20,2020.1.3,1,0,29,29,0
4.94257967,MacIntel,space,0.28600000000000003,,,2021-02-10_18h19.34.837,PVT builder,60,20.0,,,20,2020.1.3,1,0,30,30,0
2.939576725,MacIntel,space,0.31,,,2021-02-10_18h19.34.837,PVT builder,60,20.0,,,20,2020.1.3,1,0,31,31,0
5.106132808,MacIntel,space,0.306,,,2021-02-10_18h19.34.837,PVT builder,60,20.0,,,20,2020.1.3,1,0,32,32,0
5.621534887999999,MacIntel,space,0.302,,,2021-02-10_18h19.34.837,PVT builder,60,20.0,,,20,2020.1.3,1,0,33,33,0
6.0131139639999995,MacIntel,space,0.436,,,2021-02-10_18h19.34.837,PVT builder,60,20.0,,,20,2020.1.3,1,0,34,34,0
7.200234697999999,MacIntel,space,0.301,,,2021-02-10_18h19.34.837,PVT builder,60,20.0,"[""space""]",[6.325999999999965],20,2020.1.3,1,0,35,35,0
8.418469496,MacIntel,space,0.043,,,2021-02-10_18h19.34.837,PVT builder,60,20.0,,,20,2020.1.3,1,0,36,36,0
8.555762839,MacIntel,space,0.301,,,2021-02-10_18h19.34.837,PVT builder,60,20.0,,,20,2020.1.3,1,0,37,37,0
2.8585437789999997,MacIntel,space,0.33899999999999997,,,2021-02-10_18h19.34.837,PVT builder,60,20.0,,,20,2020.1.3,1,0,38,38,0
9.783020775,MacIntel,space,0.307,,,2021-02-10_18h19.34.837,PVT builder,60,20.0,,,20,2020.1.3,1,0,39,39,0
9.470281266,MacIntel,space,0.335,,,2021-02-10_18h19.34.837,PVT builder,60,20.0,"[""space""]",[1.768000000000029],20,2020.1.3,1,0,40,40,0
8.746783491,MacIntel,space,0.285,,,2021-02-10_18h19.34.837,PVT builder,60,20.0,,,20,2020.1.3,1,0,41,41,0
7.048396112000001,MacIntel,space,0.272,,,2021-02-10_18h19.34.837,PVT builder,60,20.0,,,20,2020.1.3,1,0,42,42,0
3.780841493,MacIntel,space,0.28300000000000003,,,2021-02-10_18h19.34.837,PVT builder,60,20.0,,,20,2020.1.3,1,0,43,43,0
4.16750738,MacIntel,space,0.36700000000000005,,,2021-02-10_18h19.34.837,PVT builder,60,20.0,,,20,2020.1.3,1,0,44,44,0
8.705779841,MacIntel,space,0.29100000000000004,,,2021-02-10_18h19.34.837,PVT builder,60,20.0,"[""space""]",[6.711999999999989],20,2020.1.3,1,0,45,45,0
7.351065675,MacIntel,space,0.32,,,2021-02-10_18h19.34.837,PVT builder,60,20.0,,,20,2020.1.3,1,0,46,46,0
2.359781059,MacIntel,space,0.322,,,2021-02-10_18h19.34.837,PVT builder,60,20.0,,,20,2020.1.3,1,0,47,47,0
3.3488508880000003,MacIntel,space,0.341,,,2021-02-10_18h19.34.837,PVT builder,60,20.0,,,20,2020.1.3,1,0,48,48,0
8.321625942,MacIntel,space,0.302,,,2021-02-10_18h19.34.837,PVT builder,60,20.0,,,20,2020.1.3,1,0,49,49,0
5.467111103,MacIntel,space,0.302,,,2021-02-10_18h19.34.837,PVT builder,60,20.0,,,20,2020.1.3,1,0,50,50,0
8.50064569,MacIntel,space,0.304,,,2021-02-10_18h19.34.837,PVT builder,60,20.0,,,20,2020.1.3,1,0,51,51,0
3.5861774289999997,MacIntel,space,0.34299999999999997,,,2021-02-10_18h19.34.837,PVT builder,60,20.0,,,20,2020.1.3,1,0,52,52,0
2.876189725,MacIntel,space,0.304,,,2021-02-10_18h19.34.837,PVT builder,60,20.0,,,20,2020.1.3,1,0,53,53,0
4.990522365,MacIntel,space,0.284,,,2021-02-10_18h19.34.837,PVT builder,60,20.0,,,20,2020.1.3,1,0,54,54,0
8.491855472000001,MacIntel,space,0.306,,,2021-02-10_18h19.34.837,PVT builder,60,20.0,,,20,2020.1.3,1,0,55,55,0
9.489555126,MacIntel,space,0.353,,,2021-02-10_18h19.34.837,PVT builder,60,20.0,,,20,2020.1.3,1,0,56,56,0
2.481046837,MacIntel,space,0.452,,,2021-02-10_18h19.34.837,PVT builder,60,20.0,,,20,2020.1.3,1,0,57,57,0
6.675789455,MacIntel,space,0.33399999999999996,,,2021-02-10_18h19.34.837,PVT builder,60,20.0,,,20,2020.1.3,1,0,58,58,0
5.702671005,MacIntel,space,0.33399999999999996,,,2021-02-10_18h19.34.837,PVT builder,60,20.0,,,20,2020.1.3,1,0,59,59,0
7.294345722999999,MacIntel,space,0.292,,,2021-02-10_18h19.34.837,PVT builder,60,20.0,,,20,2020.1.3,1,0,60,60,0
3.933187175,MacIntel,space,0.33399999999999996,,,2021-02-10_18h19.34.837,PVT builder,60,20.0,,,20,2020.1.3,1,0,61,61,0
8.124708945,MacIntel,space,0.321,,,2021-02-10_18h19.34.837,PVT builder,60,20.0,,,20,2020.1.3,1,0,62,62,0
9.541976659,MacIntel,space,0.4,,,2021-02-10_18h19.34.837,PVT builder,60,20.0,,,20,2020.1.3,1,0,63,63,0
7.718548537,MacIntel,space,0.46,,,2021-02-10_18h19.34.837,PVT builder,60,20.0,,,20,2020.1.3,1,0,64,64,0
3.362429585,MacIntel,space,0.353,,,2021-02-10_18h19.34.837,PVT builder,60,20.0,,,20,2020.1.3,1,0,65,65,0
9.043933759,MacIntel,space,0.303,,,2021-02-10_18h19.34.837,PVT builder,60,20.0,,,20,2020.1.3,1,0,66,66,0
2.547372638,MacIntel,space,0.389,,,2021-02-10_18h19.34.837,PVT builder,60,20.0,,,20,2020.1.3,1,0,67,67,0
4.818447668,MacIntel,space,0.316,,,2021-02-10_18h19.34.837,PVT builder,60,20.0,,,20,2020.1.3,1,0,68,68,0
8.355815106,MacIntel,space,0.306,,,2021-02-10_18h19.34.837,PVT builder,60,20.0,,,20,2020.1.3,1,0,69,69,0
5.399058145,MacIntel,space,0.42,,,2021-02-10_18h19.34.837,PVT builder,60,20.0,,,20,2020.1.3,1,0,70,70,0
8.92925651,MacIntel,space,0.317,,,2021-02-10_18h19.34.837,PVT builder,60,20.0,,,20,2020.1.3,1,0,71,71,0
9.921283984,MacIntel,space,0.336,,,2021-02-10_18h19.34.837,PVT builder,60,20.0,,,20,2020.1.3,1,0,72,72,0
9.285496671,MacIntel,space,0.3,,,2021-02-10_18h19.34.837,PVT builder,60,20.0,,,20,2020.1.3,1,0,73,73,0
4.702045265,MacIntel,space,0.33399999999999996,,,2021-02-10_18h19.34.837,PVT builder,60,20.0,,,20,2020.1.3,1,0,74,74,0
5.3270972930000005,MacIntel,space,0.324,,,2021-02-10_18h19.34.837,PVT builder,60,20.0,,,20,2020.1.3,1,0,75,75,0
2.648739993,MacIntel,space,0.402,,,2021-02-10_18h19.34.837,PVT builder,60,20.0,,,20,2020.1.3,1,0,76,76,0
6.747539871,MacIntel,space,0.27,space,5.234,2021-02-16_20h26.46.644,PVT builder,60,21.0,,,21,2020.1.3,1,0,0,0,0
3.645109342,MacIntel,space,0.345,,,2021-02-16_20h26.46.644,PVT builder,60,21.0,,,21,2020.1.3,1,0,1,1,0
2.313914415,MacIntel,space,0.25,,,2021-02-16_20h26.46.644,PVT builder,60,21.0,,,21,2020.1.3,1,0,2,2,0
8.584887327999999,MacIntel,space,0.29,,,2021-02-16_20h26.46.644,PVT builder,60,21.0,,,21,2020.1.3,1,0,3,3,0
9.439788352999999,MacIntel,space,0.35100000000000003,,,2021-02-16_20h26.46.644,PVT builder,60,21.0,"[""space"",""space""]","[4.585000000000008,8.152000000000001]",21,2020.1.3,1,0,4,4,0
2.5110409280000003,MacIntel,space,0.376,,,2021-02-16_20h26.46.644,PVT builder,60,21.0,,,21,2020.1.3,1,0,5,5,0
5.16521745,MacIntel,space,0.321,,,2021-02-16_20h26.46.644,PVT builder,60,21.0,,,21,2020.1.3,1,0,6,6,0
7.472684069,MacIntel,space,0.344,,,2021-02-16_20h26.46.644,PVT builder,60,21.0,"[""space""]",[6.352000000000011],21,2020.1.3,1,0,7,7,0
7.822786507000001,MacIntel,space,0.251,,,2021-02-16_20h26.46.644,PVT builder,60,21.0,,,21,2020.1.3,1,0,8,8,0
5.354457427,MacIntel,space,0.254,,,2021-02-16_20h26.46.644,PVT builder,60,21.0,,,21,2020.1.3,1,0,9,9,0
3.032068533,MacIntel,space,0.31,,,2021-02-16_20h26.46.644,PVT builder,60,21.0,,,21,2020.1.3,1,0,10,10,0
5.664888275,MacIntel,space,0.266,,,2021-02-16_20h26.46.644,PVT builder,60,21.0,,,21,2020.1.3,1,0,11,11,0
5.348091048,MacIntel,space,0.253,,,2021-02-16_20h26.46.644,PVT builder,60,21.0,,,21,2020.1.3,1,0,12,12,0
5.793176073,MacIntel,space,0.244,,,2021-02-16_20h26.46.644,PVT builder,60,21.0,,,21,2020.1.3,1,0,13,13,0
9.483000751,MacIntel,space,0.27899999999999997,,,2021-02-16_20h26.46.644,PVT builder,60,21.0,,,21,2020.1.3,1,0,14,14,0
3.369207569,MacIntel,space,0.311,,,2021-02-16_20h26.46.644,PVT builder,60,21.0,,,21,2020.1.3,1,0,15,15,0
5.998363975,MacIntel,space,0.252,,,2021-02-16_20h26.46.644,PVT builder,60,21.0,,,21,2020.1.3,1,0,16,16,0
3.749386803,MacIntel,space,0.331,,,2021-02-16_20h26.46.644,PVT builder,60,21.0,"[""space""]",[1.5159999999999911],21,2020.1.3,1,0,17,17,0
2.32082016,MacIntel,space,0.32899999999999996,,,2021-02-16_20h26.46.644,PVT builder,60,21.0,,,21,2020.1.3,1,0,18,18,0
4.537346229,MacIntel,space,0.26899999999999996,,,2021-02-16_20h26.46.644,PVT builder,60,21.0,,,21,2020.1.3,1,0,19,19,0
6.81460713,MacIntel,space,0.256,,,2021-02-16_20h26.46.644,PVT builder,60,21.0,"[""space""]",[2.8460000000000036],21,2020.1.3,1,0,20,20,0
4.415105316,MacIntel,space,0.325,,,2021-02-16_20h26.46.644,PVT builder,60,21.0,,,21,2020.1.3,1,0,21,21,0
4.114724123,MacIntel,space,0.293,,,2021-02-16_20h26.46.644,PVT builder,60,21.0,,,21,2020.1.3,1,0,22,22,0
6.901304925,MacIntel,space,0.25,,,2021-02-16_20h26.46.644,PVT builder,60,21.0,,,21,2020.1.3,1,0,23,23,0
6.693777205,MacIntel,space,0.252,,,2021-02-16_20h26.46.644,PVT builder,60,21.0,,,21,2020.1.3,1,0,24,24,0
3.2298770510000003,MacIntel,space,0.293,,,2021-02-16_20h26.46.644,PVT builder,60,21.0,,,21,2020.1.3,1,0,25,25,0
9.580777409,MacIntel,space,0.235,,,2021-02-16_20h26.46.644,PVT builder,60,21.0,,,21,2020.1.3,1,0,26,26,0
8.351808045,MacIntel,space,0.313,,,2021-02-16_20h26.46.644,PVT builder,60,21.0,,,21,2020.1.3,1,0,27,27,0
3.993543898,MacIntel,space,0.37,,,2021-02-16_20h26.46.644,PVT builder,60,21.0,,,21,2020.1.3,1,0,28,28,0
5.872043485,MacIntel,space,0.27399999999999997,,,2021-02-16_20h26.46.644,PVT builder,60,21.0,,,21,2020.1.3,1,0,29,29,0
9.886716694,MacIntel,space,0.259,,,2021-02-16_20h26.46.644,PVT builder,60,21.0,,,21,2020.1.3,1,0,30,30,0
6.324245802,MacIntel,space,0.324,,,2021-02-16_20h26.46.644,PVT builder,60,21.0,,,21,2020.1.3,1,0,31,31,0
6.944927176,MacIntel,space,0.361,,,2021-02-16_20h26.46.644,PVT builder,60,21.0,,,21,2020.1.3,1,0,32,32,0
7.782623167000001,MacIntel,space,0.298,,,2021-02-16_20h26.46.644,PVT builder,60,21.0,,,21,2020.1.3,1,0,33,33,0
5.6602638910000005,MacIntel,space,0.243,,,2021-02-16_20h26.46.644,PVT builder,60,21.0,,,21,2020.1.3,1,0,34,34,0
5.9947043970000005,MacIntel,space,0.335,,,2021-02-16_20h26.46.644,PVT builder,60,21.0,,,21,2020.1.3,1,0,35,35,0
9.349018355,MacIntel,space,0.26,,,2021-02-16_20h26.46.644,PVT builder,60,21.0,,,21,2020.1.3,1,0,36,36,0
4.362242376,MacIntel,space,0.289,,,2021-02-16_20h26.46.644,PVT builder,60,21.0,,,21,2020.1.3,1,0,37,37,0
7.019342699999999,MacIntel,space,0.254,,,2021-02-16_20h26.46.644,PVT builder,60,21.0,,,21,2020.1.3,1,0,38,38,0
5.238443486,MacIntel,space,0.23399999999999999,,,2021-02-16_20h26.46.644,PVT builder,60,21.0,,,21,2020.1.3,1,0,39,39,0
7.65948749,MacIntel,space,0.29,,,2021-02-16_20h26.46.644,PVT builder,60,21.0,,,21,2020.1.3,1,0,40,40,0
2.825790482,MacIntel,space,0.342,,,2021-02-16_20h26.46.644,PVT builder,60,21.0,,,21,2020.1.3,1,0,41,41,0
7.150944823,MacIntel,space,0.276,,,2021-02-16_20h26.46.644,PVT builder,60,21.0,,,21,2020.1.3,1,0,42,42,0
3.1076272819999997,MacIntel,space,0.285,,,2021-02-16_20h26.46.644,PVT builder,60,21.0,,,21,2020.1.3,1,0,43,43,0
4.103124562,MacIntel,space,0.28800000000000003,,,2021-02-16_20h26.46.644,PVT builder,60,21.0,,,21,2020.1.3,1,0,44,44,0
6.581148756,MacIntel,space,0.293,,,2021-02-16_20h26.46.644,PVT builder,60,21.0,,,21,2020.1.3,1,0,45,45,0
9.735176395,MacIntel,space,0.284,,,2021-02-16_20h26.46.644,PVT builder,60,21.0,,,21,2020.1.3,1,0,46,46,0
7.678808282,MacIntel,space,0.301,,,2021-02-16_20h26.46.644,PVT builder,60,21.0,,,21,2020.1.3,1,0,47,47,0
5.932652507999999,MacIntel,space,0.32299999999999995,,,2021-02-16_20h26.46.644,PVT builder,60,21.0,,,21,2020.1.3,1,0,48,48,0
9.559653055,MacIntel,space,0.308,,,2021-02-16_20h26.46.644,PVT builder,60,21.0,,,21,2020.1.3,1,0,49,49,0
8.038495174,MacIntel,space,0.26899999999999996,,,2021-02-16_20h26.46.644,PVT builder,60,21.0,,,21,2020.1.3,1,0,50,50,0
4.0382005869999995,MacIntel,space,0.318,,,2021-02-16_20h26.46.644,PVT builder,60,21.0,,,21,2020.1.3,1,0,51,51,0
3.595855383,MacIntel,space,0.41200000000000003,,,2021-02-16_20h26.46.644,PVT builder,60,21.0,,,21,2020.1.3,1,0,52,52,0
2.780771947,MacIntel,space,0.309,,,2021-02-16_20h26.46.644,PVT builder,60,21.0,,,21,2020.1.3,1,0,53,53,0
7.505160441,MacIntel,space,0.29100000000000004,,,2021-02-16_20h26.46.644,PVT builder,60,21.0,,,21,2020.1.3,1,0,54,54,0
7.8475834739999994,MacIntel,space,0.282,,,2021-02-16_20h26.46.644,PVT builder,60,21.0,,,21,2020.1.3,1,0,55,55,0
5.154650022,MacIntel,space,0.34299999999999997,,,2021-02-16_20h26.46.644,PVT builder,60,21.0,,,21,2020.1.3,1,0,56,56,0
5.738362593,MacIntel,space,0.324,,,2021-02-16_20h26.46.644,PVT builder,60,21.0,,,21,2020.1.3,1,0,57,57,0
6.924325873,MacIntel,space,0.242,,,2021-02-16_20h26.46.644,PVT builder,60,21.0,,,21,2020.1.3,1,0,58,58,0
6.953800751,MacIntel,space,0.254,,,2021-02-16_20h26.46.644,PVT builder,60,21.0,,,21,2020.1.3,1,0,59,59,0
2.9695822830000003,MacIntel,space,0.32799999999999996,,,2021-02-16_20h26.46.644,PVT builder,60,21.0,,,21,2020.1.3,1,0,60,60,0
8.680529808,MacIntel,space,0.278,,,2021-02-16_20h26.46.644,PVT builder,60,21.0,,,21,2020.1.3,1,0,61,61,0
4.748386999,MacIntel,space,0.316,,,2021-02-16_20h26.46.644,PVT builder,60,21.0,"[""space"",""space""]","[1.7720000000000482,2.149000000000001]",21,2020.1.3,1,0,62,62,0
6.751010262,MacIntel,space,0.26,,,2021-02-16_20h26.46.644,PVT builder,60,21.0,,,21,2020.1.3,1,0,63,63,0
9.1523356,MacIntel,space,0.273,,,2021-02-16_20h26.46.644,PVT builder,60,21.0,,,21,2020.1.3,1,0,64,64,0
7.645572499,MacIntel,space,0.309,,,2021-02-16_20h26.46.644,PVT builder,60,21.0,,,21,2020.1.3,1,0,65,65,0
5.145637166,MacIntel,space,0.275,,,2021-02-16_20h26.46.644,PVT builder,60,21.0,,,21,2020.1.3,1,0,66,66,0
8.319039435,MacIntel,space,0.34299999999999997,,,2021-02-16_20h26.46.644,PVT builder,60,21.0,,,21,2020.1.3,1,0,67,67,0
5.175624186,MacIntel,space,0.34299999999999997,,,2021-02-16_20h26.46.644,PVT builder,60,21.0,,,21,2020.1.3,1,0,68,68,0
7.550302853,MacIntel,space,0.379,,,2021-02-16_20h26.46.644,PVT builder,60,21.0,,,21,2020.1.3,1,0,69,69,0
5.5955797060000005,MacIntel,space,0.303,,,2021-02-16_20h26.46.644,PVT builder,60,21.0,,,21,2020.1.3,1,0,70,70,0
7.283634798,MacIntel,space,0.294,,,2021-02-16_20h26.46.644,PVT builder,60,21.0,"[""space""]",[4.565000000000055],21,2020.1.3,1,0,71,71,0
2.055282891,MacIntel,space,0.35100000000000003,,,2021-02-16_20h26.46.644,PVT builder,60,21.0,,,21,2020.1.3,1,0,72,72,0
9.215640211,MacIntel,space,0.293,,,2021-02-16_20h26.46.644,PVT builder,60,21.0,,,21,2020.1.3,1,0,73,73,0
8.019412775,MacIntel,space,0.303,,,2021-02-16_20h26.46.644,PVT builder,60,21.0,,,21,2020.1.3,1,0,74,74,0
4.948631471000001,MacIntel,space,0.301,,,2021-02-16_20h26.46.644,PVT builder,60,21.0,,,21,2020.1.3,1,0,75,75,0
9.653516112,MacIntel,space,0.32,,,2021-02-16_20h26.46.644,PVT builder,60,21.0,,,21,2020.1.3,1,0,76,76,0
7.705838357999999,MacIntel,space,0.344,,,2021-02-16_20h26.46.644,PVT builder,60,21.0,,,21,2020.1.3,1,0,77,77,0
3.3524977810000003,MacIntel,space,0.662,,,2021-02-16_20h26.46.644,PVT builder,60,21.0,,,21,2020.1.3,1,0,78,78,0
9.335935586,MacIntel,space,0.332,,,2021-02-16_20h26.46.644,PVT builder,60,21.0,,,21,2020.1.3,1,0,79,79,0
8.206193651,MacIntel,space,0.327,,,2021-02-16_20h26.46.644,PVT builder,60,21.0,,,21,2020.1.3,1,0,80,80,0
3.0095844589999996,Win32,space,1.59289,space,12.05211,2021-02-11_19h21.15.547,PVT builder,60,,,,22,2020.1.3,1,0,0,0,0
9.533547542,Win32,space,0.302135,,,2021-02-11_19h21.15.547,PVT builder,60,,,,22,2020.1.3,1,0,1,1,0
7.82030773,Win32,space,0.32492,,,2021-02-11_19h21.15.547,PVT builder,60,,,,22,2020.1.3,1,0,2,2,0
4.628622324,Win32,space,0.38166,,,2021-02-11_19h21.15.547,PVT builder,60,,"[""space"",""space"",""space""]","[0.01931999999988676,0.15538999999989755,0.3042649999997735]",22,2020.1.3,1,0,3,3,0
7.858424597000001,Win32,space,0.26586,,,2021-02-11_19h21.15.547,PVT builder,60,,"[""space"",""space""]","[0.05227500000000873,0.2507999999997992]",22,2020.1.3,1,0,4,4,0
5.2372404239999995,Win32,space,0.2674,,,2021-02-11_19h21.15.547,PVT builder,60,,,,22,2020.1.3,1,0,5,5,0
2.09658746,Win32,space,0.25629,,,2021-02-11_19h21.15.547,PVT builder,60,,,,22,2020.1.3,1,0,6,6,0
3.475036677,Win32,space,0.227115,,,2021-02-11_19h21.15.547,PVT builder,60,,,,22,2020.1.3,1,0,7,7,0
3.2985359260000005,Win32,space,0.23563499999999998,,,2021-02-11_19h21.15.547,PVT builder,60,,,,22,2020.1.3,1,0,8,8,0
6.656174868,Win32,space,0.332405,,,2021-02-11_19h21.15.547,PVT builder,60,,"[""space""]",[2.8893349999998463],22,2020.1.3,1,0,9,9,0
8.864724162,Win32,space,0.289975,,,2021-02-11_19h21.15.547,PVT builder,60,,,,22,2020.1.3,1,0,10,10,0
3.939156394,Win32,space,0.307415,,,2021-02-11_19h21.15.547,PVT builder,60,,,,22,2020.1.3,1,0,11,11,0
2.275639415,Win32,space,0.514375,,,2021-02-11_19h21.15.547,PVT builder,60,,,,22,2020.1.3,1,0,12,12,0
6.078024507,Win32,space,0.24948,,,2021-02-11_19h21.15.547,PVT builder,60,,,,22,2020.1.3,1,0,13,13,0
9.601429614,Win32,space,0.303715,,,2021-02-11_19h21.15.547,PVT builder,60,,"[""space"",""space""]","[6.4159199999999,6.5457750000000345]",22,2020.1.3,1,0,14,14,0
9.606717851,Win32,space,0.28717,,,2021-02-11_19h21.15.547,PVT builder,60,,"[""space""]",[2.2503050000000258],22,2020.1.3,1,0,15,15,0
8.20965102,Win32,space,0.255825,,,2021-02-11_19h21.15.547,PVT builder,60,,,,22,2020.1.3,1,0,16,16,0
5.706826464,Win32,space,0.319425,,,2021-02-11_19h21.15.547,PVT builder,60,,,,22,2020.1.3,1,0,17,17,0
3.7625777869999997,Win32,space,0.333415,,,2021-02-11_19h21.15.547,PVT builder,60,,,,22,2020.1.3,1,0,18,18,0
8.25549846,Win32,space,0.23618499999999998,,,2021-02-11_19h21.15.547,PVT builder,60,,,,22,2020.1.3,1,0,19,19,0
9.625040161,Win32,space,0.264455,,,2021-02-11_19h21.15.547,PVT builder,60,,"[""space""]",[0.2923649999997906],22,2020.1.3,1,0,20,20,0
8.291266333,Win32,space,0.295175,,,2021-02-11_19h21.15.547,PVT builder,60,,,,22,2020.1.3,1,0,21,21,0
3.976746213,Win32,space,0.286095,,,2021-02-11_19h21.15.547,PVT builder,60,,,,22,2020.1.3,1,0,22,22,0
2.114214472,Win32,space,0.44801499999999994,,,2021-02-11_19h21.15.547,PVT builder,60,,"[""space""]",[0.23208999999997104],22,2020.1.3,1,0,23,23,0
3.0920961019999997,Win32,space,0.32916,,,2021-02-11_19h21.15.547,PVT builder,60,,,,22,2020.1.3,1,0,24,24,0
7.5360202339999995,Win32,space,0.2942,,,2021-02-11_19h21.15.547,PVT builder,60,,,,22,2020.1.3,1,0,25,25,0
5.88594838,Win32,space,0.33831,,,2021-02-11_19h21.15.547,PVT builder,60,,,,22,2020.1.3,1,0,26,26,0
7.222371961,Win32,space,0.25501999999999997,,,2021-02-11_19h21.15.547,PVT builder,60,,,,22,2020.1.3,1,0,27,27,0
6.72868209,Win32,space,0.29823,,,2021-02-11_19h21.15.547,PVT builder,60,,,,22,2020.1.3,1,0,28,28,0
3.790742335,Win32,space,0.29596999999999996,,,2021-02-11_19h21.15.547,PVT builder,60,,,,22,2020.1.3,1,0,29,29,0
9.042083944,Win32,space,0.34574499999999997,,,2021-02-11_19h21.15.547,PVT builder,60,,,,22,2020.1.3,1,0,30,30,0
7.147031613999999,Win32,space,0.37788499999999997,,,2021-02-11_19h21.15.547,PVT builder,60,,,,22,2020.1.3,1,0,31,31,0
9.011535875,Win32,space,0.37916500000000003,,,2021-02-11_19h21.15.547,PVT builder,60,,,,22,2020.1.3,1,0,32,32,0
2.7355452939999996,Win32,space,0.4177,,,2021-02-11_19h21.15.547,PVT builder,60,,,,22,2020.1.3,1,0,33,33,0
2.335058182,Win32,space,0.24871999999999997,,,2021-02-11_19h21.15.547,PVT builder,60,,,,22,2020.1.3,1,0,34,34,0
7.010049238,Win32,space,0.27665500000000004,,,2021-02-11_19h21.15.547,PVT builder,60,,,,22,2020.1.3,1,0,35,35,0
2.287260168,Win32,space,0.30144499999999996,,,2021-02-11_19h21.15.547,PVT builder,60,,,,22,2020.1.3,1,0,36,36,0
8.64365427,Win32,space,0.2997,,,2021-02-11_19h21.15.547,PVT builder,60,,,,22,2020.1.3,1,0,37,37,0
2.075814302,Win32,space,0.3454,,,2021-02-11_19h21.15.547,PVT builder,60,,,,22,2020.1.3,1,0,38,38,0
2.129275135,Win32,space,0.31431,,,2021-02-11_19h21.15.547,PVT builder,60,,,,22,2020.1.3,1,0,39,39,0
3.9366622280000003,Win32,space,0.328275,,,2021-02-11_19h21.15.547,PVT builder,60,,,,22,2020.1.3,1,0,40,40,0
6.164048015,Win32,space,0.34852,,,2021-02-11_19h21.15.547,PVT builder,60,,,,22,2020.1.3,1,0,41,41,0
2.082409171,Win32,space,0.34462,,,2021-02-11_19h21.15.547,PVT builder,60,,"[""space""]",[1.4320749999997133],22,2020.1.3,1,0,42,42,0
6.689679411,Win32,space,0.30083000000000004,,,2021-02-11_19h21.15.547,PVT builder,60,,,,22,2020.1.3,1,0,43,43,0
6.7097744839999995,Win32,space,0.273925,,,2021-02-11_19h21.15.547,PVT builder,60,,,,22,2020.1.3,1,0,44,44,0
4.525615318,Win32,space,0.283505,,,2021-02-11_19h21.15.547,PVT builder,60,,,,22,2020.1.3,1,0,45,45,0
5.136252527,Win32,space,0.31578,,,2021-02-11_19h21.15.547,PVT builder,60,,,,22,2020.1.3,1,0,46,46,0
9.712814925,Win32,space,0.231095,,,2021-02-11_19h21.15.547,PVT builder,60,,,,22,2020.1.3,1,0,47,47,0
3.4165182130000002,Win32,space,0.278305,,,2021-02-11_19h21.15.547,PVT builder,60,,,,22,2020.1.3,1,0,48,48,0
8.335963791000001,Win32,space,0.24849000000000002,,,2021-02-11_19h21.15.547,PVT builder,60,,,,22,2020.1.3,1,0,49,49,0
7.656593872999999,Win32,space,0.24988000000000002,,,2021-02-11_19h21.15.547,PVT builder,60,,,,22,2020.1.3,1,0,50,50,0
9.371671625,Win32,space,0.24786999999999998,,,2021-02-11_19h21.15.547,PVT builder,60,,,,22,2020.1.3,1,0,51,51,0
2.8265241530000003,Win32,space,0.34980500000000003,,,2021-02-11_19h21.15.547,PVT builder,60,,,,22,2020.1.3,1,0,52,52,0
2.7830849669999997,Win32,space,0.25743,,,2021-02-11_19h21.15.547,PVT builder,60,,,,22,2020.1.3,1,0,53,53,0
7.803275876,Win32,space,0.23535999999999999,,,2021-02-11_19h21.15.547,PVT builder,60,,,,22,2020.1.3,1,0,54,54,0
7.338542512,Win32,space,0.2683,,,2021-02-11_19h21.15.547,PVT builder,60,,,,22,2020.1.3,1,0,55,55,0
9.772678286,Win32,space,0.3328,,,2021-02-11_19h21.15.547,PVT builder,60,,,,22,2020.1.3,1,0,56,56,0
3.0410920480000003,Win32,space,0.36366,,,2021-02-11_19h21.15.547,PVT builder,60,,,,22,2020.1.3,1,0,57,57,0
8.122109397000001,Win32,space,0.330965,,,2021-02-11_19h21.15.547,PVT builder,60,,,,22,2020.1.3,1,0,58,58,0
7.907428916000001,Win32,space,0.26921,,,2021-02-11_19h21.15.547,PVT builder,60,,,,22,2020.1.3,1,0,59,59,0
9.739869739,Win32,space,0.261855,,,2021-02-11_19h21.15.547,PVT builder,60,,"[""space""]",[0.9441550000001371],22,2020.1.3,1,0,60,60,0
6.2106718370000005,Win32,space,0.417325,,,2021-02-11_19h21.15.547,PVT builder,60,,,,22,2020.1.3,1,0,61,61,0
7.979101561,Win32,space,0.331795,,,2021-02-11_19h21.15.547,PVT builder,60,,,,22,2020.1.3,1,0,62,62,0
6.979389792999999,Win32,space,0.26677,,,2021-02-11_19h21.15.547,PVT builder,60,,,,22,2020.1.3,1,0,63,63,0
5.580661417999999,Win32,space,0.318405,,,2021-02-11_19h21.15.547,PVT builder,60,,,,22,2020.1.3,1,0,64,64,0
6.06426874,Win32,space,0.41143,,,2021-02-11_19h21.15.547,PVT builder,60,,,,22,2020.1.3,1,0,65,65,0
5.794702035,Win32,space,0.34565999999999997,,,2021-02-11_19h21.15.547,PVT builder,60,,,,22,2020.1.3,1,0,66,66,0
5.370116247,Win32,space,0.283265,,,2021-02-11_19h21.15.547,PVT builder,60,,,,22,2020.1.3,1,0,67,67,0
9.125734148,Win32,space,0.504855,,,2021-02-11_19h21.15.547,PVT builder,60,,,,22,2020.1.3,1,0,68,68,0
5.77996337,Win32,space,0.516505,,,2021-02-11_19h21.15.547,PVT builder,60,,,,22,2020.1.3,1,0,69,69,0
6.792800825,Win32,space,0.35174,,,2021-02-11_19h21.15.547,PVT builder,60,,,,22,2020.1.3,1,0,70,70,0
3.035021146,Win32,space,0.364875,,,2021-02-11_19h21.15.547,PVT builder,60,,,,22,2020.1.3,1,0,71,71,0
2.98145177,Win32,space,0.312165,,,2021-02-11_19h21.15.547,PVT builder,60,,,,22,2020.1.3,1,0,72,72,0
8.010170122,Win32,space,0.23185999999999998,,,2021-02-11_19h21.15.547,PVT builder,60,,,,22,2020.1.3,1,0,73,73,0
6.222393901,Win32,space,0.33520500000000003,,,2021-02-11_19h21.15.547,PVT builder,60,,"[""space""]",[4.766755000000103],22,2020.1.3,1,0,74,74,0
3.5453427580000003,Win32,space,0.33688,,,2021-02-11_19h21.15.547,PVT builder,60,,,,22,2020.1.3,1,0,75,75,0
3.464862408,Win32,space,0.31861999999999996,,,2021-02-11_19h21.15.547,PVT builder,60,,,,22,2020.1.3,1,0,76,76,0
5.001002601000001,Win32,space,0.338515,,,2021-02-11_19h21.15.547,PVT builder,60,,,,22,2020.1.3,1,0,77,77,0
5.323402732,Win32,space,0.402615,,,2021-02-11_19h21.15.547,PVT builder,60,,,,22,2020.1.3,1,0,78,78,0
8.218741822,Win32,space,0.336355,,,2021-02-11_19h21.15.547,PVT builder,60,,,,22,2020.1.3,1,0,79,79,0
4.176644797,Win32,space,0.36549499999999996,,,2021-02-11_19h21.15.547,PVT builder,60,,,,22,2020.1.3,1,0,80,80,0
6.732483444,Win32,space,0.684345,,,2021-02-11_19h21.15.547,PVT builder,60,,,,22,2020.1.3,1,0,81,81,0
8.76164381,Win32,space,0.23144,,,2021-02-11_19h21.15.547,PVT builder,60,,,,22,2020.1.3,1,0,82,82,0
8.455967761,Win32,space,0.53977,space,8.445235,2021-02-11_18h59.58.641,PVT builder,60,23.0,"[""space""]",[8.284644999999728],23,2020.1.3,1,0,0,0,0
6.862446568999999,Win32,space,0.469125,,,2021-02-11_18h59.58.641,PVT builder,60,23.0,,,23,2020.1.3,1,0,1,1,0
6.681185192999999,Win32,space,0.29194000000000003,,,2021-02-11_18h59.58.641,PVT builder,60,23.0,,,23,2020.1.3,1,0,2,2,0
4.003620931,Win32,space,0.332505,,,2021-02-11_18h59.58.641,PVT builder,60,23.0,,,23,2020.1.3,1,0,3,3,0
5.108748404,Win32,space,0.31863,,,2021-02-11_18h59.58.641,PVT builder,60,23.0,"[""space"",""space""]","[0.025415000000066357,0.18778999999994994]",23,2020.1.3,1,0,4,4,0
3.166055221,Win32,space,0.37405,,,2021-02-11_18h59.58.641,PVT builder,60,23.0,,,23,2020.1.3,1,0,5,5,0
3.3287635769999997,Win32,space,0.335555,,,2021-02-11_18h59.58.641,PVT builder,60,23.0,,,23,2020.1.3,1,0,6,6,0
4.771089861,Win32,space,0.2856,,,2021-02-11_18h59.58.641,PVT builder,60,23.0,,,23,2020.1.3,1,0,7,7,0
5.255360062,Win32,space,0.30855,,,2021-02-11_18h59.58.641,PVT builder,60,23.0,,,23,2020.1.3,1,0,8,8,0
3.471451534,Win32,space,0.352275,,,2021-02-11_18h59.58.641,PVT builder,60,23.0,,,23,2020.1.3,1,0,9,9,0
4.901984593,Win32,space,0.36884,,,2021-02-11_18h59.58.641,PVT builder,60,23.0,,,23,2020.1.3,1,0,10,10,0
7.16174896,Win32,space,0.2765,,,2021-02-11_18h59.58.641,PVT builder,60,23.0,,,23,2020.1.3,1,0,11,11,0
8.325048752,Win32,space,0.28941500000000003,,,2021-02-11_18h59.58.641,PVT builder,60,23.0,"[""space"",""space"",""space"",""space"",""space""]","[0.0174349999979313,0.13435000000026776,0.2690699999984645,0.40412499999729334,0.5713249999971595]",23,2020.1.3,1,0,12,12,0
6.429316107999999,Win32,space,0.45751000000000003,,,2021-02-11_18h59.58.641,PVT builder,60,23.0,"[""space"",""space"",""space"",""space""]","[0.04309000000284868,0.18601000000126078,0.3210300000027928,1.9373900000027788]",23,2020.1.3,1,0,13,13,0
5.499206595,Win32,space,0.38953000000000004,,,2021-02-11_18h59.58.641,PVT builder,60,23.0,"[""space""]",[0.06749500000296393],23,2020.1.3,1,0,14,14,0
2.71049823,Win32,space,0.585555,,,2021-02-11_18h59.58.641,PVT builder,60,23.0,,,23,2020.1.3,1,0,15,15,0
5.5168202420000005,Win32,space,0.31871,,,2021-02-11_18h59.58.641,PVT builder,60,23.0,,,23,2020.1.3,1,0,16,16,0
6.420745607000001,Win32,space,0.302105,,,2021-02-11_18h59.58.641,PVT builder,60,23.0,,,23,2020.1.3,1,0,17,17,0
5.501069012,Win32,space,0.31909499999999996,,,2021-02-11_18h59.58.641,PVT builder,60,23.0,"[""space"",""space""]","[0.05354499999884865,0.20094999999855645]",23,2020.1.3,1,0,18,18,0
9.167364941,Win32,space,0.27415500000000004,,,2021-02-11_18h59.58.641,PVT builder,60,23.0,"[""space"",""space"",""space""]","[0.01750499999980093,0.1676900000020396,0.3201950000002398]",23,2020.1.3,1,0,19,19,0
7.021374499999999,Win32,space,0.3755,,,2021-02-11_18h59.58.641,PVT builder,60,23.0,,,23,2020.1.3,1,0,20,20,0
7.482260902,Win32,space,0.535295,,,2021-02-11_18h59.58.641,PVT builder,60,23.0,,,23,2020.1.3,1,0,21,21,0
9.703235454,Win32,space,0.318875,,,2021-02-11_18h59.58.641,PVT builder,60,23.0,,,23,2020.1.3,1,0,22,22,0
3.5363766589999996,Win32,space,0.452445,,,2021-02-11_18h59.58.641,PVT builder,60,23.0,,,23,2020.1.3,1,0,23,23,0
8.760905355,Win32,space,0.758155,,,2021-02-11_18h59.58.641,PVT builder,60,23.0,,,23,2020.1.3,1,0,24,24,0
6.130791518,Win32,space,0.360415,,,2021-02-11_18h59.58.641,PVT builder,60,23.0,,,23,2020.1.3,1,0,25,25,0
9.301420202000001,Win32,space,0.40210999999999997,,,2021-02-11_18h59.58.641,PVT builder,60,23.0,,,23,2020.1.3,1,0,26,26,0
9.29113257,Win32,space,0.30232,,,2021-02-11_18h59.58.641,PVT builder,60,23.0,,,23,2020.1.3,1,0,27,27,0
4.524164534,Win32,space,0.35212,,,2021-02-11_18h59.58.641,PVT builder,60,23.0,,,23,2020.1.3,1,0,28,28,0
8.277446916,Win32,space,0.30323,,,2021-02-11_18h59.58.641,PVT builder,60,23.0,,,23,2020.1.3,1,0,29,29,0
2.460057187,Win32,space,0.385465,,,2021-02-11_18h59.58.641,PVT builder,60,23.0,"[""space"",""space""]","[0.10425499999837484,0.244459999998071]",23,2020.1.3,1,0,30,30,0
3.167849729,Win32,space,0.3522,,,2021-02-11_18h59.58.641,PVT builder,60,23.0,"[""space"",""space""]","[0.0008850000012898818,0.1021550000004936]",23,2020.1.3,1,0,31,31,0
8.94586012,Win32,space,0.33536,,,2021-02-11_18h59.58.641,PVT builder,60,23.0,"[""space""]",[0.1009249999988242],23,2020.1.3,1,0,32,32,0
6.03568994,Win32,space,0.28013000000000005,,,2021-02-11_18h59.58.641,PVT builder,60,23.0,"[""space"",""space"",""space""]","[0.017469999998866115,0.15118000000074971,0.2845400000005611]",23,2020.1.3,1,0,33,33,0
4.697574223999999,Win32,space,0.285235,,,2021-02-11_18h59.58.641,PVT builder,60,23.0,"[""space""]",[0.04970999999932246],23,2020.1.3,1,0,34,34,0
6.366107844,Win32,space,0.376415,,,2021-02-11_18h59.58.641,PVT builder,60,23.0,,,23,2020.1.3,1,0,35,35,0
7.383623553,Win32,space,0.28556,,,2021-02-11_18h59.58.641,PVT builder,60,23.0,,,23,2020.1.3,1,0,36,36,0
3.2758931430000002,Win32,space,0.35204,,,2021-02-11_18h59.58.641,PVT builder,60,23.0,,,23,2020.1.3,1,0,37,37,0
8.187429219,Win32,space,0.30194499999999996,,,2021-02-11_18h59.58.641,PVT builder,60,23.0,,,23,2020.1.3,1,0,38,38,0
7.404232423,Win32,space,0.30230500000000005,,,2021-02-11_18h59.58.641,PVT builder,60,23.0,,,23,2020.1.3,1,0,39,39,0
7.387763268,Win32,space,0.46925,,,2021-02-11_18h59.58.641,PVT builder,60,23.0,"[""space"",""space""]","[0.05101999999897089,0.2008999999997627]",23,2020.1.3,1,0,40,40,0
6.850247523999999,Win32,space,0.252065,,,2021-02-11_18h59.58.641,PVT builder,60,23.0,"[""space""]",[0.017510000001550452],23,2020.1.3,1,0,41,41,0
6.5623228970000005,Win32,space,0.25739,,,2021-02-11_18h59.58.641,PVT builder,60,23.0,,,23,2020.1.3,1,0,42,42,0
4.941088703999999,Win32,space,0.31887,,,2021-02-11_18h59.58.641,PVT builder,60,23.0,"[""space"",""space"",""space""]","[0.0009050000008983261,0.10670000000033042,0.25102999999944586]",23,2020.1.3,1,0,43,43,0
4.31637521,Win32,space,0.36918,,,2021-02-11_18h59.58.641,PVT builder,60,23.0,"[""space"",""space""]","[0.013160000002244487,0.1369000000012761]",23,2020.1.3,1,0,44,44,0
2.5938940759999998,Win32,space,0.28561,,,2021-02-11_18h59.58.641,PVT builder,60,23.0,"[""space"",""space""]","[0.026485000002139714,0.17376500000324313]",23,2020.1.3,1,0,45,45,0
6.975040229,Win32,space,0.4366,,,2021-02-11_18h59.58.641,PVT builder,60,23.0,,,23,2020.1.3,1,0,46,46,0
4.974624988,Win32,space,0.36891,,,2021-02-11_18h59.58.641,PVT builder,60,23.0,,,23,2020.1.3,1,0,47,47,0
8.21148749,Win32,space,0.351115,,,2021-02-11_18h59.58.641,PVT builder,60,23.0,"[""space""]",[0.06739000000010265],23,2020.1.3,1,0,48,48,0
8.045631701,Win32,space,0.301965,,,2021-02-11_18h59.58.641,PVT builder,60,23.0,"[""space""]",[4.657619999998133],23,2020.1.3,1,0,49,49,0
3.5547028430000003,Win32,space,0.45608000000000004,,,2021-02-11_18h59.58.641,PVT builder,60,23.0,,,23,2020.1.3,1,0,50,50,0
5.345862803,Win32,space,0.28534499999999996,,,2021-02-11_18h59.58.641,PVT builder,60,23.0,,,23,2020.1.3,1,0,51,51,0
7.370819924,Win32,space,0.53552,,,2021-02-11_18h59.58.641,PVT builder,60,23.0,"[""space""]",[0.03432500000053551],23,2020.1.3,1,0,52,52,0
8.372225435,Win32,space,0.352145,,,2021-02-11_18h59.58.641,PVT builder,60,23.0,"[""space""]",[0.08427500000107102],23,2020.1.3,1,0,53,53,0
8.535607575,Win32,space,0.41889,,,2021-02-11_18h59.58.641,PVT builder,60,23.0,,,23,2020.1.3,1,0,54,54,0
2.7294519569999998,Win32,space,0.952815,,,2021-02-11_18h59.58.641,PVT builder,60,23.0,,,23,2020.1.3,1,0,55,55,0
3.2972828219999997,Win32,space,0.50227,,,2021-02-11_18h59.58.641,PVT builder,60,23.0,,,23,2020.1.3,1,0,56,56,0
2.84548694,Win32,space,0.33547,,,2021-02-11_18h59.58.641,PVT builder,60,23.0,,,23,2020.1.3,1,0,57,57,0
4.849994689,Win32,space,0.30196999999999996,,,2021-02-11_18h59.58.641,PVT builder,60,23.0,,,23,2020.1.3,1,0,58,58,0
2.510829012,Win32,space,0.6860649999999999,,,2021-02-11_18h59.58.641,PVT builder,60,23.0,"[""space""]",[0.15102499999920838],23,2020.1.3,1,0,59,59,0
7.54079693,Win32,space,0.30183499999999996,,,2021-02-11_18h59.58.641,PVT builder,60,23.0,,,23,2020.1.3,1,0,60,60,0
7.774288339,Win32,space,0.41989499999999996,,,2021-02-11_18h59.58.641,PVT builder,60,23.0,,,23,2020.1.3,1,0,61,61,0
9.309666462000001,Win32,space,0.30178499999999997,,,2021-02-11_18h59.58.641,PVT builder,60,23.0,,,23,2020.1.3,1,0,62,62,0
9.817540038999999,Win32,space,0.32458000000000004,,,2021-02-11_18h59.58.641,PVT builder,60,23.0,"[""space"",""space""]","[0.08659500000067055,0.24937499999941792]",23,2020.1.3,1,0,63,63,0
5.919585479,Win32,space,0.41866000000000003,,,2021-02-11_18h59.58.641,PVT builder,60,23.0,,,23,2020.1.3,1,0,64,64,0
9.949945816,Win32,space,0.2243,,,2021-02-11_18h59.58.641,PVT builder,60,23.0,"[""space""]",[0.13418499999903588],23,2020.1.3,1,0,65,65,0
5.631487039,Win32,space,0.27421999999999996,,,2021-02-11_18h59.58.641,PVT builder,60,23.0,,,23,2020.1.3,1,0,66,66,0
5.66957291,Win32,space,0.28522,,,2021-02-11_18h59.58.641,PVT builder,60,23.0,,,23,2020.1.3,1,0,67,67,0
2.7757426360000004,Win32,space,0.46889,,,2021-02-11_18h59.58.641,PVT builder,60,23.0,,,23,2020.1.3,1,0,68,68,0
4.521710747,Win32,space,0.26953,,,2021-02-11_18h59.58.641,PVT builder,60,23.0,,,23,2020.1.3,1,0,69,69,0
3.130907927,Win32,space,0.40203,,,2021-02-11_18h59.58.641,PVT builder,60,23.0,"[""N/A""]",[0.8685649999970337],23,2020.1.3,1,0,70,70,0
4.166841504,Win32,space,0.37096999999999997,,,2021-02-11_18h59.58.641,PVT builder,60,23.0,,,23,2020.1.3,1,0,71,71,0
8.921401268,Win32,space,0.28536,,,2021-02-11_18h59.58.641,PVT builder,60,23.0,,,23,2020.1.3,1,0,72,72,0
8.540466243,Win32,space,0.402275,,,2021-02-11_18h59.58.641,PVT builder,60,23.0,,,23,2020.1.3,1,0,73,73,0
4.530710093,Win32,space,0.39134,,,2021-02-11_18h59.58.641,PVT builder,60,23.0,,,23,2020.1.3,1,0,74,74,0
8.992873638999999,Win32,space,0.35769,,,2021-02-11_18h59.58.641,PVT builder,60,23.0,,,23,2020.1.3,1,0,75,75,0
3.375129352,Win32,space,0.38548499999999997,,,2021-02-11_18h59.58.641,PVT builder,60,23.0,,,23,2020.1.3,1,0,76,76,0
9.293999017,Win32,space,0.33534,,,2021-02-11_18h59.58.641,PVT builder,60,23.0,,,23,2020.1.3,1,0,77,77,0
5.143208433,Win32,space,0.401935,,,2021-02-11_18h59.58.641,PVT builder,60,23.0,"[""space""]",[0.03798000000085722],23,2020.1.3,1,0,78,78,0
7.513046748,Win32,space,0.385265,,,2021-02-11_18h59.58.641,PVT builder,60,23.0,,,23,2020.1.3,1,0,79,79,0
5.119926663999999,Win32,space,0.418705,,,2021-02-11_18h59.58.641,PVT builder,60,23.0,"[""space""]",[0.08237499999813735],23,2020.1.3,1,0,80,80,0
4.570185326,Win32,space,0.344595,space,8.363935000000001,2021-02-14_14h06.14.624,PVT builder,60,25.0,,,25,2020.1.3,1,0,0,0,0
4.964757315,Win32,space,0.320085,,,2021-02-14_14h06.14.624,PVT builder,60,25.0,,,25,2020.1.3,1,0,1,1,0
7.036002976,Win32,space,0.43566499999999997,,,2021-02-14_14h06.14.624,PVT builder,60,25.0,"[""space""]",[5.846519999999828],25,2020.1.3,1,0,2,2,0
4.779937874,Win32,space,0.319845,,,2021-02-14_14h06.14.624,PVT builder,60,25.0,,,25,2020.1.3,1,0,3,3,0
8.030474803999999,Win32,space,0.4022,,,2021-02-14_14h06.14.624,PVT builder,60,25.0,,,25,2020.1.3,1,0,4,4,0
6.1400112060000005,Win32,space,0.268665,,,2021-02-14_14h06.14.624,PVT builder,60,25.0,,,25,2020.1.3,1,0,5,5,0
3.341235427,Win32,space,0.334925,,,2021-02-14_14h06.14.624,PVT builder,60,25.0,,,25,2020.1.3,1,0,6,6,0
7.2082807429999995,Win32,space,0.29936,,,2021-02-14_14h06.14.624,PVT builder,60,25.0,,,25,2020.1.3,1,0,7,7,0
8.183105566,Win32,space,0.299125,,,2021-02-14_14h06.14.624,PVT builder,60,25.0,,,25,2020.1.3,1,0,8,8,0
5.376362672000001,Win32,space,0.34046,,,2021-02-14_14h06.14.624,PVT builder,60,25.0,"[""space""]",[0.5591500000000309],25,2020.1.3,1,0,9,9,0
7.132982145,Win32,space,0.299815,,,2021-02-14_14h06.14.624,PVT builder,60,25.0,,,25,2020.1.3,1,0,10,10,0
6.780616462999999,Win32,space,0.30438000000000004,,,2021-02-14_14h06.14.624,PVT builder,60,25.0,,,25,2020.1.3,1,0,11,11,0
5.074817805,Win32,space,0.301215,,,2021-02-14_14h06.14.624,PVT builder,60,25.0,,,25,2020.1.3,1,0,12,12,0
2.111495487,Win32,space,0.46629,,,2021-02-14_14h06.14.624,PVT builder,60,25.0,,,25,2020.1.3,1,0,13,13,0
3.416334613,Win32,space,0.39924499999999996,,,2021-02-14_14h06.14.624,PVT builder,60,25.0,"[""space""]",[0.8480299999998806],25,2020.1.3,1,0,14,14,0
9.90161839,Win32,space,0.306515,,,2021-02-14_14h06.14.624,PVT builder,60,25.0,,,25,2020.1.3,1,0,15,15,0
9.286144858,Win32,space,0.28719,,,2021-02-14_14h06.14.624,PVT builder,60,25.0,,,25,2020.1.3,1,0,16,16,0
5.2618711760000005,Win32,space,0.28642,,,2021-02-14_14h06.14.624,PVT builder,60,25.0,"[""space""]",[0.48352999999997337],25,2020.1.3,1,0,17,17,0
8.839752611,Win32,space,0.318465,,,2021-02-14_14h06.14.624,PVT builder,60,25.0,,,25,2020.1.3,1,0,18,18,0
7.110701612000001,Win32,space,0.452075,,,2021-02-14_14h06.14.624,PVT builder,60,25.0,,,25,2020.1.3,1,0,19,19,0
5.676185591,Win32,space,0.35225500000000004,,,2021-02-14_14h06.14.624,PVT builder,60,25.0,,,25,2020.1.3,1,0,20,20,0
9.811922356,Win32,space,0.30967,,,2021-02-14_14h06.14.624,PVT builder,60,25.0,,,25,2020.1.3,1,0,21,21,0
4.9354910489999995,Win32,space,0.369195,,,2021-02-14_14h06.14.624,PVT builder,60,25.0,,,25,2020.1.3,1,0,22,22,0
6.98018626,Win32,space,0.28420500000000004,,,2021-02-14_14h06.14.624,PVT builder,60,25.0,,,25,2020.1.3,1,0,23,23,0
5.08531773,Win32,space,0.276965,,,2021-02-14_14h06.14.624,PVT builder,60,25.0,,,25,2020.1.3,1,0,24,24,0
3.8198437519999997,Win32,space,0.29244499999999995,,,2021-02-14_14h06.14.624,PVT builder,60,25.0,,,25,2020.1.3,1,0,25,25,0
4.673278228,Win32,space,0.26797,,,2021-02-14_14h06.14.624,PVT builder,60,25.0,,,25,2020.1.3,1,0,26,26,0
2.169463639,Win32,space,0.417875,,,2021-02-14_14h06.14.624,PVT builder,60,25.0,,,25,2020.1.3,1,0,27,27,0
6.96943222,Win32,space,0.317565,,,2021-02-14_14h06.14.624,PVT builder,60,25.0,,,25,2020.1.3,1,0,28,28,0
7.171853565,Win32,space,0.285065,,,2021-02-14_14h06.14.624,PVT builder,60,25.0,,,25,2020.1.3,1,0,29,29,0
3.997695885,Win32,space,0.28498,,,2021-02-14_14h06.14.624,PVT builder,60,25.0,,,25,2020.1.3,1,0,30,30,0
5.628967402000001,Win32,space,0.28825,,,2021-02-14_14h06.14.624,PVT builder,60,25.0,,,25,2020.1.3,1,0,31,31,0
7.028829243,Win32,space,0.336495,,,2021-02-14_14h06.14.624,PVT builder,60,25.0,,,25,2020.1.3,1,0,32,32,0
2.6060788180000003,Win32,space,0.334055,,,2021-02-14_14h06.14.624,PVT builder,60,25.0,,,25,2020.1.3,1,0,33,33,0
6.918716325,Win32,space,0.299565,,,2021-02-14_14h06.14.624,PVT builder,60,25.0,,,25,2020.1.3,1,0,34,34,0
2.805342743,Win32,space,0.374865,,,2021-02-14_14h06.14.624,PVT builder,60,25.0,,,25,2020.1.3,1,0,35,35,0
3.559704141,Win32,space,0.31606,,,2021-02-14_14h06.14.624,PVT builder,60,25.0,,,25,2020.1.3,1,0,36,36,0
2.389090378,Win32,space,0.306735,,,2021-02-14_14h06.14.624,PVT builder,60,25.0,,,25,2020.1.3,1,0,37,37,0
7.786293184,Win32,space,0.289125,,,2021-02-14_14h06.14.624,PVT builder,60,25.0,,,25,2020.1.3,1,0,38,38,0
7.403491721,Win32,space,0.33734000000000003,,,2021-02-14_14h06.14.624,PVT builder,60,25.0,,,25,2020.1.3,1,0,39,39,0
5.8406164920000005,Win32,space,0.316565,,,2021-02-14_14h06.14.624,PVT builder,60,25.0,,,25,2020.1.3,1,0,40,40,0
8.941245761000001,Win32,space,0.336965,,,2021-02-14_14h06.14.624,PVT builder,60,25.0,,,25,2020.1.3,1,0,41,41,0
2.380645355,Win32,space,0.416705,,,2021-02-14_14h06.14.624,PVT builder,60,25.0,,,25,2020.1.3,1,0,42,42,0
8.559693202,Win32,space,0.309185,,,2021-02-14_14h06.14.624,PVT builder,60,25.0,,,25,2020.1.3,1,0,43,43,0
8.72396581,Win32,space,0.288195,,,2021-02-14_14h06.14.624,PVT builder,60,25.0,,,25,2020.1.3,1,0,44,44,0
5.748046668,Win32,space,0.28298,,,2021-02-14_14h06.14.624,PVT builder,60,25.0,,,25,2020.1.3,1,0,45,45,0
5.424273505,Win32,space,0.28756,,,2021-02-14_14h06.14.624,PVT builder,60,25.0,,,25,2020.1.3,1,0,46,46,0
3.2723341660000003,Win32,space,0.418775,,,2021-02-14_14h06.14.624,PVT builder,60,25.0,,,25,2020.1.3,1,0,47,47,0
2.4622452999999997,Win32,space,0.28731999999999996,,,2021-02-14_14h06.14.624,PVT builder,60,25.0,,,25,2020.1.3,1,0,48,48,0
3.881785026,Win32,space,0.33403,,,2021-02-14_14h06.14.624,PVT builder,60,25.0,,,25,2020.1.3,1,0,49,49,0
