Interval_stimulus,Participant,RT,Session,date,key_resp.keys,key_resp.rt,Trial
4.157783411,ADH80254,0.431265,1,2020-06-12_11h11.47.141,"[""space""]",[2.3173399999941466],0
4.876139922,ADH80254,0.27799,1,2020-06-12_11h11.47.141,,,1
5.67011868,ADH80254,0.253515,1,2020-06-12_11h11.47.141,,,2
9.338167417,ADH80254,0.31053,1,2020-06-12_11h11.47.141,,,3
9.196342656,ADH80254,0.299165,1,2020-06-12_11h11.47.141,,,4
7.62448411,ADH80254,0.53946,1,2020-06-12_11h11.47.141,,,5
8.444331594,ADH80254,0.287305,1,2020-06-12_11h11.47.141,,,6
8.90180236,ADH80254,0.320275,1,2020-06-12_11h11.47.141,,,7
5.407056312,ADH80254,0.37345,1,2020-06-12_11h11.47.141,,,8
2.60445051,ADH80254,0.361465,1,2020-06-12_11h11.47.141,,,9
5.484187239,ADH80254,0.319275,1,2020-06-12_11h11.47.141,"[""space""]",[0.021424999998998828],10
6.69396465,ADH80254,0.403485,1,2020-06-12_11h11.47.141,"[""space""]",[6.622155000004568],11
8.004172861,ADH80254,0.2705,1,2020-06-12_11h11.47.141,,,12
5.309777483,ADH80254,0.303475,1,2020-06-12_11h11.47.141,,,13
7.345542089,ADH80254,0.28983,1,2020-06-12_11h11.47.141,,,14
3.867971188,ADH80254,0.30457,1,2020-06-12_11h11.47.141,,,15
5.051121902,ADH80254,0.33524,1,2020-06-12_11h11.47.141,,,16
6.153841231,ADH80254,0.278585,1,2020-06-12_11h11.47.141,,,17
8.662079622,ADH80254,0.27911,1,2020-06-12_11h11.47.141,,,18
2.520788461,ADH80254,0.38845,1,2020-06-12_11h11.47.141,,,19
4.346096063,ADH80254,0.27367,1,2020-06-12_11h11.47.141,,,20
4.368880422,ADH80254,0.32316,1,2020-06-12_11h11.47.141,,,21
3.852849843,ADH80254,0.419005,1,2020-06-12_11h11.47.141,,,22
9.291807279,ADH80254,0.27115,1,2020-06-12_11h11.47.141,,,23
6.496852071,ADH80254,0.290405,1,2020-06-12_11h11.47.141,,,24
9.758190465,ADH80254,0.287635,1,2020-06-12_11h11.47.141,,,25
5.546689537,ADH80254,0.30453,1,2020-06-12_11h11.47.141,,,26
5.719872026,ADH80254,0.278875,1,2020-06-12_11h11.47.141,,,27
3.441117573,ADH80254,0.305895,1,2020-06-12_11h11.47.141,,,28
2.084937459,ADH80254,0.41142,1,2020-06-12_11h11.47.141,,,29
5.893972279,ADH80254,0.294425,1,2020-06-12_11h11.47.141,"[""space""]",[2.5119399999966845],30
2.318783114,ADH80254,0.32067,1,2020-06-12_11h11.47.141,,,31
7.880038906,ADH80254,0.27765,1,2020-06-12_11h11.47.141,,,32
5.12898967,ADH80254,0.28676,1,2020-06-12_11h11.47.141,,,33
9.591534371,ADH80254,0.32271,1,2020-06-12_11h11.47.141,"[""space""]",[2.934835000007297],34
4.329314194,ADH80254,0.337505,1,2020-06-12_11h11.47.141,,,35
6.425707997,ADH80254,0.304605,1,2020-06-12_11h11.47.141,,,36
8.72560625,ADH80254,0.295785,1,2020-06-12_11h11.47.141,,,37
2.592243613,ADH80254,0.354465,1,2020-06-12_11h11.47.141,,,38
4.947898945,ADH80254,0.441725,1,2020-06-12_11h11.47.141,,,39
9.956655366,ADH80254,0.29534,1,2020-06-12_11h11.47.141,,,40
3.332382424,ADH80254,0.261005,2,2020-06-19_10h32.08.553,,,0
2.450695765,ADH80254,0.410945,2,2020-06-19_10h32.08.553,,,1
4.417723529,ADH80254,0.25883,2,2020-06-19_10h32.08.553,,,2
4.595240754,ADH80254,0.27192,2,2020-06-19_10h32.08.553,,,3
4.865458115,ADH80254,0.27117,2,2020-06-19_10h32.08.553,,,4
7.290736371,ADH80254,0.27231,2,2020-06-19_10h32.08.553,,,5
4.874354954,ADH80254,0.27266,2,2020-06-19_10h32.08.553,,,6
6.652415633,ADH80254,0.305755,2,2020-06-19_10h32.08.553,,,7
6.107030107,ADH80254,0.276535,2,2020-06-19_10h32.08.553,,,8
7.898368506,ADH80254,0.25985,2,2020-06-19_10h32.08.553,,,9
5.51576185,ADH80254,0.28996,2,2020-06-19_10h32.08.553,,,10
2.222073899,ADH80254,0.304745,2,2020-06-19_10h32.08.553,,,11
6.525835258,ADH80254,0.2556,2,2020-06-19_10h32.08.553,,,12
9.772357021,ADH80254,0.286945,2,2020-06-19_10h32.08.553,,,13
7.168466416,ADH80254,0.28666,2,2020-06-19_10h32.08.553,,,14
5.653502667,ADH80254,0.309865,2,2020-06-19_10h32.08.553,,,15
5.267113661,ADH80254,0.270205,2,2020-06-19_10h32.08.553,,,16
6.601630912,ADH80254,0.277795,2,2020-06-19_10h32.08.553,,,17
8.455756344,ADH80254,0.269585,2,2020-06-19_10h32.08.553,,,18
2.145721206,ADH80254,0.404615,2,2020-06-19_10h32.08.553,,,19
2.733125699,ADH80254,0.302585,2,2020-06-19_10h32.08.553,,,20
9.213858515,ADH80254,0.301325,2,2020-06-19_10h32.08.553,,,21
5.511914962,ADH80254,0.28699,2,2020-06-19_10h32.08.553,,,22
4.38339815,ADH80254,0.28808,2,2020-06-19_10h32.08.553,,,23
8.541855194,ADH80254,0.38603,2,2020-06-19_10h32.08.553,,,24
8.914645892,ADH80254,0.2872,2,2020-06-19_10h32.08.553,,,25
5.274424478,ADH80254,0.28996,2,2020-06-19_10h32.08.553,,,26
2.168448056,ADH80254,0.323745,2,2020-06-19_10h32.08.553,,,27
6.500721596,ADH80254,0.270915,2,2020-06-19_10h32.08.553,,,28
4.029916319,ADH80254,0.268885,2,2020-06-19_10h32.08.553,,,29
2.23394129,ADH80254,0.28968,2,2020-06-19_10h32.08.553,,,30
5.672549832,ADH80254,0.270615,2,2020-06-19_10h32.08.553,"[""space""]",[3.184195000001637],31
9.826284649,ADH80254,0.278885,2,2020-06-19_10h32.08.553,"[""space""]",[5.3330799999966985],32
5.389290681,ADH80254,0.380925,2,2020-06-19_10h32.08.553,,,33
9.42969684,ADH80254,0.29603,2,2020-06-19_10h32.08.553,,,34
6.787246084,ADH80254,0.29404,2,2020-06-19_10h32.08.553,,,35
9.247765308,ADH80254,0.337235,2,2020-06-19_10h32.08.553,,,36
8.65054721,ADH80254,0.30202,2,2020-06-19_10h32.08.553,,,37
4.686400161,ADH80254,0.320895,2,2020-06-19_10h32.08.553,,,38
7.812171399,ADH80254,0.28425,2,2020-06-19_10h32.08.553,,,39
4.146068704,ADH80254,0.304765,2,2020-06-19_10h32.08.553,,,40
3.148692384,ADH80254,0.329245,2,2020-06-19_10h32.08.553,,,41
3.729434625,AF18766,2.24234,1,2020-05-07_23h43.05.417,,,0
4.371340213,AF18766,0.502765,1,2020-05-07_23h43.05.417,,,1
7.241879959,AF18766,0.3358,1,2020-05-07_23h43.05.417,,,2
3.817828478,AF18766,0.322205,1,2020-05-07_23h43.05.417,,,3
6.879170587,AF18766,0.252575,1,2020-05-07_23h43.05.417,,,4
4.858930809,AF18766,0.317515,1,2020-05-07_23h43.05.417,,,5
3.675010196,AF18766,0.267555,1,2020-05-07_23h43.05.417,,,6
9.640970608,AF18766,0.287405,1,2020-05-07_23h43.05.417,"[""space""]",[4.68406999995932],7
7.456972623,AF18766,0.251135,1,2020-05-07_23h43.05.417,,,8
5.999548955,AF18766,0.485255,1,2020-05-07_23h43.05.417,"[""space""]",[5.8109749999130145],9
3.45807167,AF18766,0.334055,1,2020-05-07_23h43.05.417,,,10
5.536742492,AF18766,0.31813,1,2020-05-07_23h43.05.417,,,11
5.734499931,AF18766,0.21834,1,2020-05-07_23h43.05.417,,,12
7.321719524,AF18766,0.28647,1,2020-05-07_23h43.05.417,"[""space""]",[4.920419999980368],13
2.527253072,AF18766,0.35138,1,2020-05-07_23h43.05.417,,,14
5.525567662,AF18766,0.23821,1,2020-05-07_23h43.05.417,,,15
7.407925841,AF18766,0.26933,1,2020-05-07_23h43.05.417,,,16
7.779907918,AF18766,0.271565,1,2020-05-07_23h43.05.417,,,17
7.347515395,AF18766,0.266825,1,2020-05-07_23h43.05.417,,,18
7.414446368,AF18766,0.25683,1,2020-05-07_23h43.05.417,,,19
4.861331118,AF18766,0.257685,1,2020-05-07_23h43.05.417,,,20
5.228061695,AF18766,0.53419,1,2020-05-07_23h43.05.417,"[""space""]",[5.139094999991357],21
9.515023339,AF18766,0.26919,1,2020-05-07_23h43.05.417,,,22
6.391467116,AF18766,0.306985,1,2020-05-07_23h43.05.417,,,23
7.576418968,AF18766,0.2856,1,2020-05-07_23h43.05.417,,,24
8.789622672,AF18766,0.285755,1,2020-05-07_23h43.05.417,,,25
7.579806442,AF18766,0.268395,1,2020-05-07_23h43.05.417,,,26
7.096933986,AF18766,0.301805,1,2020-05-07_23h43.05.417,,,27
9.9339205,AF18766,0.275335,1,2020-05-07_23h43.05.417,"[""space""]",[0.5562950000166893],28
7.548867927,AF18766,0.25431,1,2020-05-07_23h43.05.417,,,29
4.683277947,AF18766,0.29958,1,2020-05-07_23h43.05.417,,,30
9.752949402,AF18766,0.30278,1,2020-05-07_23h43.05.417,,,31
3.961287201,AF18766,0.305135,1,2020-05-07_23h43.05.417,,,32
8.503189091,AF18766,0.26895,1,2020-05-07_23h43.05.417,"[""space""]",[1.4249549999367446],33
3.831335487,AF18766,0.3021,1,2020-05-07_23h43.05.417,,,34
8.104660573,AF18766,0.26918,1,2020-05-07_23h43.05.417,,,35
8.10248862,AF18766,0.31928,1,2020-05-07_23h43.05.417,"[""space""]",[7.290039999992587],36
8.575018759,AF18766,0.273425,1,2020-05-07_23h43.05.417,,,37
4.968243565,AF18766,0.28737,1,2020-05-07_23h43.05.417,,,38
3.296811665,AF18766,0.273325,2,2020-05-14_22h00.17.949,,,0
8.766097909,AF18766,0.271185,2,2020-05-14_22h00.17.949,,,1
8.429959622,AF18766,0.251935,2,2020-05-14_22h00.17.949,,,2
8.991251891,AF18766,0.274675,2,2020-05-14_22h00.17.949,,,3
2.359270506,AF18766,0.38273,2,2020-05-14_22h00.17.949,,,4
8.631926858,AF18766,0.33062,2,2020-05-14_22h00.17.949,,,5
7.266142249,AF18766,0.358365,2,2020-05-14_22h00.17.949,,,6
4.727688426,AF18766,0.342215,2,2020-05-14_22h00.17.949,,,7
2.053595133,AF18766,0.53407,2,2020-05-14_22h00.17.949,,,8
7.307663512,AF18766,0.287955,2,2020-05-14_22h00.17.949,,,9
9.99845887,AF18766,0.266495,2,2020-05-14_22h00.17.949,,,10
6.448928805,AF18766,0.28878,2,2020-05-14_22h00.17.949,,,11
5.452515303,AF18766,0.32061,2,2020-05-14_22h00.17.949,,,12
9.928686866,AF18766,0.27115,2,2020-05-14_22h00.17.949,,,13
5.138921762,AF18766,0.30189,2,2020-05-14_22h00.17.949,,,14
6.044041318,AF18766,0.32278,2,2020-05-14_22h00.17.949,,,15
5.062926209,AF18766,0.30778,2,2020-05-14_22h00.17.949,,,16
8.653884712,AF18766,0.27152,2,2020-05-14_22h00.17.949,,,17
5.005738794,AF18766,0.3603,2,2020-05-14_22h00.17.949,,,18
3.334472079,AF18766,0.30409,2,2020-05-14_22h00.17.949,,,19
4.369983351,AF18766,0.252965,2,2020-05-14_22h00.17.949,,,20
4.95735205,AF18766,0.238735,2,2020-05-14_22h00.17.949,,,21
8.100819309,AF18766,0.256775,2,2020-05-14_22h00.17.949,,,22
9.243615577,AF18766,0.250935,2,2020-05-14_22h00.17.949,"[""space""]",[7.489469999913126],23
5.944311976,AF18766,0.298995,2,2020-05-14_22h00.17.949,,,24
9.38429564,AF18766,0.24021,2,2020-05-14_22h00.17.949,,,25
8.834198693,AF18766,0.2544,2,2020-05-14_22h00.17.949,,,26
3.644845892,AF18766,0.33375,2,2020-05-14_22h00.17.949,,,27
3.397529384,AF18766,0.344645,2,2020-05-14_22h00.17.949,,,28
5.506151209,AF18766,0.290995,2,2020-05-14_22h00.17.949,,,29
2.704722553,AF18766,0.31091,2,2020-05-14_22h00.17.949,,,30
6.357561356,AF18766,0.33174,2,2020-05-14_22h00.17.949,,,31
4.262993041,AF18766,0.306335,2,2020-05-14_22h00.17.949,,,32
2.190937637,AF18766,0.37605,2,2020-05-14_22h00.17.949,,,33
6.824740788,AF18766,0.254275,2,2020-05-14_22h00.17.949,,,34
8.82669203,AF18766,0.270795,2,2020-05-14_22h00.17.949,,,35
4.244222876,AF18766,0.356035,2,2020-05-14_22h00.17.949,,,36
4.209842435,AF18766,0.348115,2,2020-05-14_22h00.17.949,,,37
6.000600132,AF18766,0.32666,2,2020-05-14_22h00.17.949,,,38
7.989362469,AF18766,0.271145,2,2020-05-14_22h00.17.949,,,39
5.851634438,AF18766,0.281845,2,2020-05-14_22h00.17.949,,,40
6.124738942,AJ98098,0.879,1,2020-06-19_17h25.05.998,,,0
7.487783658,AJ98098,0.438,1,2020-06-19_17h25.05.998,,,1
6.481138843,AJ98098,0.354,1,2020-06-19_17h25.05.998,,,2
7.135113283,AJ98098,0.425,1,2020-06-19_17h25.05.998,,,3
3.801407835,AJ98098,1.307,1,2020-06-19_17h25.05.998,,,4
4.805232618,AJ98098,0.363,1,2020-06-19_17h25.05.998,,,5
5.102330886,AJ98098,0.354,1,2020-06-19_17h25.05.998,,,6
6.699286525,AJ98098,0.392,1,2020-06-19_17h25.05.998,,,7
3.95448706,AJ98098,0.454,1,2020-06-19_17h25.05.998,,,8
9.18770825,AJ98098,0.39,1,2020-06-19_17h25.05.998,,,9
2.949736087,AJ98098,0.457,1,2020-06-19_17h25.05.998,,,10
3.429613134,AJ98098,0.439,1,2020-06-19_17h25.05.998,,,11
7.379278725,AJ98098,0.404,1,2020-06-19_17h25.05.998,,,12
8.826635212,AJ98098,0.519,1,2020-06-19_17h25.05.998,,,13
7.351875938,AJ98098,0.392,1,2020-06-19_17h25.05.998,,,14
4.68495453,AJ98098,0.401,1,2020-06-19_17h25.05.998,,,15
4.367321909,AJ98098,0.39,1,2020-06-19_17h25.05.998,,,16
2.887599347,AJ98098,0.439,1,2020-06-19_17h25.05.998,,,17
8.961192707,AJ98098,0.358,1,2020-06-19_17h25.05.998,,,18
4.792683487,AJ98098,0.421,1,2020-06-19_17h25.05.998,,,19
5.039802249,AJ98098,0.423,1,2020-06-19_17h25.05.998,,,20
6.552294942,AJ98098,0.424,1,2020-06-19_17h25.05.998,,,21
6.636186958,AJ98098,0.401,1,2020-06-19_17h25.05.998,,,22
9.232609316,AJ98098,0.425,1,2020-06-19_17h25.05.998,,,23
2.864774095,AJ98098,0.52,1,2020-06-19_17h25.05.998,,,24
2.202389522,AJ98098,0.435,1,2020-06-19_17h25.05.998,,,25
3.037301907,AJ98098,0.389,1,2020-06-19_17h25.05.998,,,26
7.545558223,AJ98098,0.391,1,2020-06-19_17h25.05.998,,,27
5.664162769,AJ98098,0.363,1,2020-06-19_17h25.05.998,,,28
8.907161678,AJ98098,0.358,1,2020-06-19_17h25.05.998,,,29
4.030135728,AJ98098,0.396,1,2020-06-19_17h25.05.998,,,30
7.140510019,AJ98098,0.357,1,2020-06-19_17h25.05.998,,,31
2.16610107,AJ98098,0.49,1,2020-06-19_17h25.05.998,,,32
8.517161576,AJ98098,0.367,1,2020-06-19_17h25.05.998,,,33
5.100265825,AJ98098,0.39,1,2020-06-19_17h25.05.998,,,34
9.549712525,AJ98098,0.423,1,2020-06-19_17h25.05.998,,,35
4.51597288,AJ98098,0.424,1,2020-06-19_17h25.05.998,,,36
7.285225179,AJ98098,0.427,1,2020-06-19_17h25.05.998,,,37
3.102926272,AJ98098,0.44,1,2020-06-19_17h25.05.998,,,38
2.641667509,AJ98098,0.389,1,2020-06-19_17h25.05.998,,,39
7.677278391,AJ98098,0.389,1,2020-06-19_17h25.05.998,,,40
5.197512647,AJ98098,0.386,1,2020-06-19_17h25.05.998,,,41
5.138608928,AJ98098,0.358,2,2020-06-25_18h04.28.174,,,0
7.532212255,AJ98098,0.406,2,2020-06-25_18h04.28.174,,,1
9.049373603,AJ98098,0.428,2,2020-06-25_18h04.28.174,,,2
8.091138416,AJ98098,0.429,2,2020-06-25_18h04.28.174,,,3
3.571237747,AJ98098,0.444,2,2020-06-25_18h04.28.174,,,4
8.624162744,AJ98098,0.409,2,2020-06-25_18h04.28.174,,,5
2.812079753,AJ98098,0.556,2,2020-06-25_18h04.28.174,,,6
2.120776699,AJ98098,0.465,2,2020-06-25_18h04.28.174,,,7
4.907077336,AJ98098,0.453,2,2020-06-25_18h04.28.174,,,8
7.37205555,AJ98098,0.393,2,2020-06-25_18h04.28.174,,,9
5.404363205,AJ98098,0.453,2,2020-06-25_18h04.28.174,,,10
4.387824776,AJ98098,0.391,2,2020-06-25_18h04.28.174,,,11
7.75458241,AJ98098,0.362,2,2020-06-25_18h04.28.174,,,12
2.185371694,AJ98098,0.463,2,2020-06-25_18h04.28.174,,,13
2.175001749,AJ98098,0.46,2,2020-06-25_18h04.28.174,,,14
8.096558517,AJ98098,0.43,2,2020-06-25_18h04.28.174,,,15
7.252008672,AJ98098,0.392,2,2020-06-25_18h04.28.174,,,16
6.77751281,AJ98098,0.401,2,2020-06-25_18h04.28.174,,,17
5.718057138,AJ98098,0.393,2,2020-06-25_18h04.28.174,,,18
3.419204678,AJ98098,0.402,2,2020-06-25_18h04.28.174,,,19
6.378722029,AJ98098,0.367,2,2020-06-25_18h04.28.174,,,20
9.788818875,AJ98098,0.376,2,2020-06-25_18h04.28.174,,,21
4.78654462,AJ98098,0.409,2,2020-06-25_18h04.28.174,,,22
4.361788783,AJ98098,0.415,2,2020-06-25_18h04.28.174,,,23
8.438661564,AJ98098,0.424,2,2020-06-25_18h04.28.174,,,24
5.825669172,AJ98098,0.402,2,2020-06-25_18h04.28.174,,,25
4.304113482,AJ98098,0.458,2,2020-06-25_18h04.28.174,,,26
4.320159176,AJ98098,0.428,2,2020-06-25_18h04.28.174,,,27
3.110790215,AJ98098,0.426,2,2020-06-25_18h04.28.174,,,28
4.639991181,AJ98098,0.399,2,2020-06-25_18h04.28.174,,,29
5.568296226,AJ98098,0.365,2,2020-06-25_18h04.28.174,,,30
9.335535238,AJ98098,0.46,2,2020-06-25_18h04.28.174,,,31
3.249189906,AJ98098,0.392,2,2020-06-25_18h04.28.174,,,32
2.678696324,AJ98098,0.392,2,2020-06-25_18h04.28.174,,,33
6.848396332,AJ98098,0.427,2,2020-06-25_18h04.28.174,,,34
9.970025598,AJ98098,0.391,2,2020-06-25_18h04.28.174,,,35
9.360276333,AJ98098,0.43,2,2020-06-25_18h04.28.174,,,36
6.78341762,AJ98098,0.393,2,2020-06-25_18h04.28.174,,,37
2.349044448,AJ98098,0.467,2,2020-06-25_18h04.28.174,,,38
6.056713227,AJ98098,0.392,2,2020-06-25_18h04.28.174,,,39
7.235043267,AJ98098,0.429,2,2020-06-25_18h04.28.174,,,40
8.568020094,AJ98098,0.466,2,2020-06-25_18h04.28.174,,,41
8.911290657,AM88807,0.538065,1,2020-06-10_16h45.54.279,,,0
9.767076955,AM88807,0.2514,1,2020-06-10_16h45.54.279,,,1
6.89637656,AM88807,0.304135,1,2020-06-10_16h45.54.279,,,2
4.023795232,AM88807,0.419035,1,2020-06-10_16h45.54.279,,,3
5.224977143,AM88807,0.285685,1,2020-06-10_16h45.54.279,,,4
8.534503131,AM88807,0.299845,1,2020-06-10_16h45.54.279,,,5
7.411059636,AM88807,0.283405,1,2020-06-10_16h45.54.279,,,6
9.832557673,AM88807,0.365655,1,2020-06-10_16h45.54.279,,,7
5.451841367,AM88807,0.350525,1,2020-06-10_16h45.54.279,,,8
6.534819647,AM88807,0.389595,1,2020-06-10_16h45.54.279,,,9
3.900298188,AM88807,0.3576,1,2020-06-10_16h45.54.279,,,10
6.497399836,AM88807,0.30162,1,2020-06-10_16h45.54.279,,,11
7.596315485,AM88807,0.706425,1,2020-06-10_16h45.54.279,,,12
6.451764697,AM88807,0.448695,1,2020-06-10_16h45.54.279,,,13
7.069052445,AM88807,0.274865,1,2020-06-10_16h45.54.279,,,14
5.997553701,AM88807,0.24928,1,2020-06-10_16h45.54.279,,,15
2.427534793,AM88807,0.24869,1,2020-06-10_16h45.54.279,,,16
5.031582129,AM88807,0.22913,1,2020-06-10_16h45.54.279,,,17
3.589179608,AM88807,0.251065,1,2020-06-10_16h45.54.279,,,18
6.190369619,AM88807,0.284495,1,2020-06-10_16h45.54.279,,,19
7.300691043,AM88807,0.26994,1,2020-06-10_16h45.54.279,,,20
5.557640524,AM88807,0.27397,1,2020-06-10_16h45.54.279,,,21
6.721149177,AM88807,0.275135,1,2020-06-10_16h45.54.279,,,22
8.142970663,AM88807,0.328945,1,2020-06-10_16h45.54.279,,,23
5.528040142,AM88807,0.285225,1,2020-06-10_16h45.54.279,,,24
5.546696808,AM88807,0.61301,1,2020-06-10_16h45.54.279,,,25
3.624502017,AM88807,0.36929,1,2020-06-10_16h45.54.279,,,26
5.352051235,AM88807,0.341095,1,2020-06-10_16h45.54.279,,,27
8.106904997,AM88807,0.23389,1,2020-06-10_16h45.54.279,,,28
4.839283569,AM88807,0.373345,1,2020-06-10_16h45.54.279,,,29
8.502500096,AM88807,0.34732,1,2020-06-10_16h45.54.279,,,30
4.421027429,AM88807,0.34865,1,2020-06-10_16h45.54.279,,,31
7.835156385,AM88807,0.205935,1,2020-06-10_16h45.54.279,,,32
5.310216951,AM88807,0.26343,1,2020-06-10_16h45.54.279,,,33
6.880695525,AM88807,0.341405,1,2020-06-10_16h45.54.279,,,34
6.759354917,AM88807,0.284105,1,2020-06-10_16h45.54.279,,,35
9.023500446,AM88807,0.25836,1,2020-06-10_16h45.54.279,,,36
8.089493221,AM88807,0.24745,1,2020-06-10_16h45.54.279,,,37
3.892152511,AM88807,0.3642,1,2020-06-10_16h45.54.279,,,38
6.291580438,AM88807,0.3284,2,2020-06-16_14h30.00.691,,,0
3.884212023,AM88807,0.302015,2,2020-06-16_14h30.00.691,,,1
8.066286025,AM88807,0.3402,2,2020-06-16_14h30.00.691,,,2
9.390137091,AM88807,0.34147,2,2020-06-16_14h30.00.691,,,3
7.286246071,AM88807,0.30031,2,2020-06-16_14h30.00.691,,,4
9.559159295,AM88807,0.26378,2,2020-06-16_14h30.00.691,,,5
2.971546272,AM88807,0.416515,2,2020-06-16_14h30.00.691,,,6
3.947067203,AM88807,0.29593,2,2020-06-16_14h30.00.691,,,7
7.443400598,AM88807,0.26787,2,2020-06-16_14h30.00.691,,,8
8.625828756,AM88807,0.273375,2,2020-06-16_14h30.00.691,,,9
3.116653521,AM88807,0.28234,2,2020-06-16_14h30.00.691,,,10
9.390211584,AM88807,0.33205,2,2020-06-16_14h30.00.691,,,11
9.757518192,AM88807,0.35166,2,2020-06-16_14h30.00.691,,,12
7.098111611,AM88807,0.29073,2,2020-06-16_14h30.00.691,,,13
5.401349967,AM88807,0.30711,2,2020-06-16_14h30.00.691,,,14
6.278558972,AM88807,0.32702,2,2020-06-16_14h30.00.691,,,15
2.643061901,AM88807,0.29806,2,2020-06-16_14h30.00.691,,,16
4.406366612,AM88807,0.28786,2,2020-06-16_14h30.00.691,,,17
2.623746679,AM88807,0.40549,2,2020-06-16_14h30.00.691,,,18
9.706589403,AM88807,0.31016,2,2020-06-16_14h30.00.691,,,19
9.037969368,AM88807,0.281305,2,2020-06-16_14h30.00.691,,,20
9.614265453,AM88807,0.282535,2,2020-06-16_14h30.00.691,,,21
7.364858373,AM88807,0.343435,2,2020-06-16_14h30.00.691,,,22
4.739680701,AM88807,0.36617,2,2020-06-16_14h30.00.691,,,23
4.443710006,AM88807,0.37145,2,2020-06-16_14h30.00.691,,,24
6.420956939,AM88807,0.36657,2,2020-06-16_14h30.00.691,,,25
6.137412443,AM88807,0.49941,2,2020-06-16_14h30.00.691,,,26
4.347692859,AM88807,0.28327,2,2020-06-16_14h30.00.691,,,27
5.430058495,AM88807,0.25149,2,2020-06-16_14h30.00.691,,,28
2.455571428,AM88807,0.382935,2,2020-06-16_14h30.00.691,,,29
3.972888632,AM88807,0.272185,2,2020-06-16_14h30.00.691,,,30
5.564191419,AM88807,0.309045,2,2020-06-16_14h30.00.691,,,31
6.829277458,AM88807,0.25101,2,2020-06-16_14h30.00.691,,,32
5.081550607,AM88807,0.533225,2,2020-06-16_14h30.00.691,,,33
5.862147718,AM88807,0.289285,2,2020-06-16_14h30.00.691,,,34
5.156499194,AM88807,0.2517,2,2020-06-16_14h30.00.691,,,35
4.647993481,AM88807,0.26753,2,2020-06-16_14h30.00.691,,,36
8.809389124,AM88807,0.272755,2,2020-06-16_14h30.00.691,,,37
6.069797953,AM88807,0.28933,2,2020-06-16_14h30.00.691,,,38
7.128571065,AM88807,0.337235,2,2020-06-16_14h30.00.691,,,39
5.33901689,AN53617,0.275,1,2020-06-16_16h36.50.018,,,0
5.103457993,AN53617,0.242,1,2020-06-16_16h36.50.018,,,1
7.328839961,AN53617,0.243,1,2020-06-16_16h36.50.018,,,2
3.551008416,AN53617,0.243,1,2020-06-16_16h36.50.018,,,3
6.780599609,AN53617,0.226,1,2020-06-16_16h36.50.018,,,4
7.691846774,AN53617,0.224,1,2020-06-16_16h36.50.018,,,5
2.221011863,AN53617,0.278,1,2020-06-16_16h36.50.018,"[""equal""]",[1.0630000000000024],6
4.926977181,AN53617,0.223,1,2020-06-16_16h36.50.018,,,7
4.00084288,AN53617,0.255,1,2020-06-16_16h36.50.018,,,8
3.544228468,AN53617,0.257,1,2020-06-16_16h36.50.018,,,9
3.875758762,AN53617,0.208,1,2020-06-16_16h36.50.018,,,10
9.656000007,AN53617,0.242,1,2020-06-16_16h36.50.018,,,11
6.194854726,AN53617,0.231,1,2020-06-16_16h36.50.018,,,12
5.162181314,AN53617,0.228,1,2020-06-16_16h36.50.018,,,13
3.340030427,AN53617,0.243,1,2020-06-16_16h36.50.018,,,14
2.923969183,AN53617,0.258,1,2020-06-16_16h36.50.018,,,15
5.237608637,AN53617,0.241,1,2020-06-16_16h36.50.018,,,16
7.563635924,AN53617,0.257,1,2020-06-16_16h36.50.018,,,17
8.935545529,AN53617,0.257,1,2020-06-16_16h36.50.018,,,18
5.693995599,AN53617,0.252,1,2020-06-16_16h36.50.018,,,19
2.405657354,AN53617,0.268,1,2020-06-16_16h36.50.018,,,20
9.672627177,AN53617,0.418,1,2020-06-16_16h36.50.018,,,21
8.95329682,AN53617,0.221,1,2020-06-16_16h36.50.018,,,22
8.402001379,AN53617,0.217,1,2020-06-16_16h36.50.018,,,23
8.494877488,AN53617,0.202,1,2020-06-16_16h36.50.018,,,24
6.974773636,AN53617,0.219,1,2020-06-16_16h36.50.018,,,25
6.010206248,AN53617,0.201,1,2020-06-16_16h36.50.018,,,26
8.246188868,AN53617,0.234,1,2020-06-16_16h36.50.018,"[""space""]",[5.054000000000002],27
4.326215402,AN53617,0.217,1,2020-06-16_16h36.50.018,,,28
6.747441618,AN53617,0.202,1,2020-06-16_16h36.50.018,,,29
7.925376917,AN53617,0.25,1,2020-06-16_16h36.50.018,,,30
4.460133108,AN53617,0.35,1,2020-06-16_16h36.50.018,,,31
5.984965019,AN53617,0.214,1,2020-06-16_16h36.50.018,,,32
2.399517118,AN53617,0.227,1,2020-06-16_16h36.50.018,,,33
2.624588477,AN53617,0.032,1,2020-06-16_16h36.50.018,,,34
5.065179316,AN53617,0.2,1,2020-06-16_16h36.50.018,,,35
6.476939487,AN53617,0.214,1,2020-06-16_16h36.50.018,,,36
4.888463248,AN53617,0.249,1,2020-06-16_16h36.50.018,,,37
7.643829843,AN53617,0.223,1,2020-06-16_16h36.50.018,"[""space""]",[7.129000000000019],38
2.155090708,AN53617,0.285,1,2020-06-16_16h36.50.018,"[""space""]",[0.15800000000001546],39
9.569012797,AN53617,0.244,1,2020-06-16_16h36.50.018,"[""space""]",[5.892999999999972],40
5.176691703,AN53617,0.229,1,2020-06-16_16h36.50.018,,,41
9.81045523,AN53617,0.248,1,2020-06-16_16h36.50.018,,,42
5.272351888,AP49828,0.81,1,2020-07-11_14h35.50.306,,,0
3.142502776,AP49828,0.334,1,2020-07-11_14h35.50.306,,,1
3.791760824,AP49828,0.252,1,2020-07-11_14h35.50.306,,,2
3.455233037,AP49828,0.268,1,2020-07-11_14h35.50.306,,,3
5.091958429,AP49828,0.299,1,2020-07-11_14h35.50.306,,,4
4.337524578,AP49828,0.301,1,2020-07-11_14h35.50.306,,,5
5.523983026,AP49828,0.266,1,2020-07-11_14h35.50.306,,,6
3.290663591,AP49828,0.267,1,2020-07-11_14h35.50.306,,,7
5.31915191,AP49828,0.28,1,2020-07-11_14h35.50.306,,,8
8.72351346,AP49828,0.305,1,2020-07-11_14h35.50.306,,,9
6.863810434,AP49828,0.365,1,2020-07-11_14h35.50.306,,,10
3.103276405,AP49828,0.282,1,2020-07-11_14h35.50.306,,,11
3.30055392,AP49828,0.299,1,2020-07-11_14h35.50.306,,,12
9.796431593,AP49828,0.319,1,2020-07-11_14h35.50.306,,,13
9.438593577,AP49828,0.286,1,2020-07-11_14h35.50.306,,,14
8.090112259,AP49828,0.351,1,2020-07-11_14h35.50.306,,,15
6.722718313,AP49828,0.305,1,2020-07-11_14h35.50.306,,,16
8.668215032,AP49828,0.318,1,2020-07-11_14h35.50.306,,,17
5.075661148,AP49828,0.28,1,2020-07-11_14h35.50.306,,,18
7.972420636,AP49828,0.301,1,2020-07-11_14h35.50.306,,,19
2.542738158,AP49828,0.35,1,2020-07-11_14h35.50.306,,,20
4.282255654,AP49828,0.3,1,2020-07-11_14h35.50.306,,,21
9.575962928,AP49828,0.317,1,2020-07-11_14h35.50.306,,,22
3.428125359,AP49828,0.384,1,2020-07-11_14h35.50.306,,,23
6.502930983,AP49828,0.302,1,2020-07-11_14h35.50.306,,,24
2.544452973,AP49828,0.332,1,2020-07-11_14h35.50.306,,,25
7.280327084,AP49828,0.301,1,2020-07-11_14h35.50.306,,,26
8.609027248,AP49828,0.283,1,2020-07-11_14h35.50.306,,,27
3.963389695,AP49828,0.288,1,2020-07-11_14h35.50.306,,,28
5.282332291,AP49828,0.355,1,2020-07-11_14h35.50.306,,,29
8.983552454,AP49828,0.299,1,2020-07-11_14h35.50.306,,,30
6.605537799,AP49828,0.316,1,2020-07-11_14h35.50.306,,,31
3.95404849,AP49828,0.306,1,2020-07-11_14h35.50.306,,,32
2.221204962,AP49828,0.25,1,2020-07-11_14h35.50.306,,,33
8.212182037,AP49828,0.349,1,2020-07-11_14h35.50.306,,,34
6.453352586,AP49828,0.292,1,2020-07-11_14h35.50.306,,,35
5.300430511,AP49828,0.285,1,2020-07-11_14h35.50.306,,,36
9.669449001,AP49828,0.285,1,2020-07-11_14h35.50.306,,,37
4.044538787,AP49828,0.303,1,2020-07-11_14h35.50.306,,,38
2.354247759,AP49828,0.309,1,2020-07-11_14h35.50.306,,,39
6.968238565,AP49828,0.35,1,2020-07-11_14h35.50.306,,,40
7.60644192,AP49828,0.314,1,2020-07-11_14h35.50.306,,,41
2.00346562,AP49828,0.35,1,2020-07-11_14h35.50.306,,,42
9.911511777,AT78643,0.258,2,2020-06-21_19h11.23.811,,,0
6.062793894,AT78643,0.251,2,2020-06-21_19h11.23.811,,,1
9.529994681,AT78643,0.25,2,2020-06-21_19h11.23.811,,,2
3.476216753,AT78643,0.339,2,2020-06-21_19h11.23.811,,,3
2.704606332,AT78643,0.37,2,2020-06-21_19h11.23.811,,,4
2.182485469,AT78643,0.302,2,2020-06-21_19h11.23.811,,,5
7.173653534,AT78643,0.217,2,2020-06-21_19h11.23.811,,,6
6.089090177,AT78643,0.218,2,2020-06-21_19h11.23.811,,,7
9.052026387,AT78643,0.218,2,2020-06-21_19h11.23.811,"[""space""]",[3.6310000000000002],8
9.453023312,AT78643,0.284,2,2020-06-21_19h11.23.811,"[""space""]",[5.0190000000000055],9
7.092884075,AT78643,0.269,2,2020-06-21_19h11.23.811,,,10
5.45413285,AT78643,0.352,2,2020-06-21_19h11.23.811,,,11
6.070645436,AT78643,0.256,2,2020-06-21_19h11.23.811,,,12
4.905398566,AT78643,0.252,2,2020-06-21_19h11.23.811,,,13
7.708907458,AT78643,0.241,2,2020-06-21_19h11.23.811,,,14
2.721129546,AT78643,0.437,2,2020-06-21_19h11.23.811,,,15
5.689088828,AT78643,0.268,2,2020-06-21_19h11.23.811,,,16
8.953495323,AT78643,0.27,2,2020-06-21_19h11.23.811,,,17
8.261362261,AT78643,0.241,2,2020-06-21_19h11.23.811,"[""space""]",[7.057999999999993],18
6.442432224,AT78643,0.284,2,2020-06-21_19h11.23.811,,,19
2.939177266,AT78643,0.402,2,2020-06-21_19h11.23.811,,,20
9.566986927,AT78643,0.237,2,2020-06-21_19h11.23.811,,,21
2.949130925,AT78643,0.302,2,2020-06-21_19h11.23.811,,,22
7.115888125,AT78643,0.271,2,2020-06-21_19h11.23.811,,,23
2.96541365,AT78643,0.303,2,2020-06-21_19h11.23.811,,,24
9.964896587,AT78643,0.269,2,2020-06-21_19h11.23.811,"[""capslock""]",[2.0020000000000095],25
6.451829129,AT78643,0.287,2,2020-06-21_19h11.23.811,,,26
6.581678838,AT78643,0.269,2,2020-06-21_19h11.23.811,,,27
5.565146456,AT78643,0.236,2,2020-06-21_19h11.23.811,,,28
6.270278465,AT78643,0.295,2,2020-06-21_19h11.23.811,,,29
7.340679975,AT78643,0.239,2,2020-06-21_19h11.23.811,,,30
9.14906879,AT78643,0.223,2,2020-06-21_19h11.23.811,,,31
7.813088158,AT78643,0.221,2,2020-06-21_19h11.23.811,,,32
5.456173792,AT78643,0.286,2,2020-06-21_19h11.23.811,,,33
7.914674163,AT78643,0.237,2,2020-06-21_19h11.23.811,,,34
9.558183612,AT78643,0.252,2,2020-06-21_19h11.23.811,,,35
6.186294666,AT78643,0.259,2,2020-06-21_19h11.23.811,,,36
9.406460241,AT78643,0.236,2,2020-06-21_19h11.23.811,,,37
6.123759202,AS54299,0.387275,1,2020-06-16_20h17.31.752,,,0
9.350635148,AS54299,0.3447,1,2020-06-16_20h17.31.752,,,1
9.288320849,AS54299,0.366315,1,2020-06-16_20h17.31.752,,,2
8.328704838,AS54299,0.369465,1,2020-06-16_20h17.31.752,,,3
5.03118757,AS54299,0.46892,1,2020-06-16_20h17.31.752,"[""space""]",[1.01634999999078],4
4.198660125,AS54299,0.358055,1,2020-06-16_20h17.31.752,,,5
7.4522879,AS54299,0.359785,1,2020-06-16_20h17.31.752,,,6
9.616911002,AS54299,0.286965,1,2020-06-16_20h17.31.752,,,7
5.906224799,AS54299,0.37389,1,2020-06-16_20h17.31.752,"[""space""]",[2.339224999974249],8
2.935380038,AS54299,0.339295,1,2020-06-16_20h17.31.752,,,9
2.622625085,AS54299,0.35242,1,2020-06-16_20h17.31.752,,,10
4.915896332,AS54299,0.339475,1,2020-06-16_20h17.31.752,,,11
5.465817097,AS54299,0.28385,1,2020-06-16_20h17.31.752,,,12
5.886176372,AS54299,0.297575,1,2020-06-16_20h17.31.752,,,13
7.221353148,AS54299,0.345145,1,2020-06-16_20h17.31.752,,,14
6.018750123,AS54299,0.385565,1,2020-06-16_20h17.31.752,,,15
5.661485556,AS54299,0.36357,1,2020-06-16_20h17.31.752,,,16
7.577511069,AS54299,0.32718,1,2020-06-16_20h17.31.752,,,17
3.843429151,AS54299,0.34462,1,2020-06-16_20h17.31.752,,,18
5.379073942,AS54299,0.294825,1,2020-06-16_20h17.31.752,,,19
6.779869992,AS54299,0.275305,1,2020-06-16_20h17.31.752,,,20
6.846599548,AS54299,0.327995,1,2020-06-16_20h17.31.752,,,21
6.844316571,AS54299,0.30898,1,2020-06-16_20h17.31.752,,,22
8.668676207,AS54299,0.36035,1,2020-06-16_20h17.31.752,,,23
8.592940275,AS54299,0.320055,1,2020-06-16_20h17.31.752,,,24
8.809975888,AS54299,0.332245,1,2020-06-16_20h17.31.752,,,25
4.355082603,AS54299,0.371215,1,2020-06-16_20h17.31.752,,,26
7.410302137,AS54299,0.31523,1,2020-06-16_20h17.31.752,,,27
9.937403099,AS54299,0.348165,1,2020-06-16_20h17.31.752,,,28
5.573835827,AS54299,0.344655,1,2020-06-16_20h17.31.752,,,29
5.803260211,AS54299,0.371915,1,2020-06-16_20h17.31.752,,,30
5.300772506,AS54299,0.391045,1,2020-06-16_20h17.31.752,,,31
9.644384151,AS54299,0.28503,1,2020-06-16_20h17.31.752,,,32
7.147522396,AS54299,0.344735,1,2020-06-16_20h17.31.752,,,33
3.48389385,AS54299,0.485455,1,2020-06-16_20h17.31.752,,,34
9.742823728,AS54299,0.347615,1,2020-06-16_20h17.31.752,,,35
2.786315022,AS54299,0.37878,1,2020-06-16_20h17.31.752,,,36
2.420349035,AS54299,0.319295,1,2020-06-16_20h17.31.752,,,37
5.948464887,AS54299,0.32799,1,2020-06-16_20h17.31.752,,,38
5.696809427,AS54299,0.28128,2,2020-06-21_20h02.50.641,,,0
5.098573086,AS54299,0.332365,2,2020-06-21_20h02.50.641,,,1
3.533656557,AS54299,0.33178,2,2020-06-21_20h02.50.641,,,2
5.527665195,AS54299,0.267695,2,2020-06-21_20h02.50.641,,,3
7.94270635,AS54299,0.32643,2,2020-06-21_20h02.50.641,"[""space""]",[5.186159999924712],4
3.245595689,AS54299,0.44631,2,2020-06-21_20h02.50.641,,,5
9.862700607,AS54299,0.30322,2,2020-06-21_20h02.50.641,,,6
7.504784689,AS54299,0.42573,2,2020-06-21_20h02.50.641,,,7
2.770343867,AS54299,0.38331,2,2020-06-21_20h02.50.641,,,8
2.125225823,AS54299,0.411935,2,2020-06-21_20h02.50.641,,,9
3.099880429,AS54299,0.360465,2,2020-06-21_20h02.50.641,"[""space""]",[1.4536749999970198],10
9.730188688,AS54299,0.29975,2,2020-06-21_20h02.50.641,,,11
5.595113125,AS54299,0.34509,2,2020-06-21_20h02.50.641,,,12
2.445798647,AS54299,0.3078,2,2020-06-21_20h02.50.641,,,13
4.880428181,AS54299,0.29004,2,2020-06-21_20h02.50.641,,,14
9.427090077,AS54299,0.467645,2,2020-06-21_20h02.50.641,,,15
5.232860965,AS54299,0.36642,2,2020-06-21_20h02.50.641,"[""space""]",[2.185635000001639],16
8.475748088,AS54299,0.27467,2,2020-06-21_20h02.50.641,,,17
3.120858563,AS54299,0.396455,2,2020-06-21_20h02.50.641,,,18
4.66942718,AS54299,0.304825,2,2020-06-21_20h02.50.641,,,19
3.150653055,AS54299,0.31361,2,2020-06-21_20h02.50.641,,,20
7.54166894,AS54299,0.33142,2,2020-06-21_20h02.50.641,,,21
4.223073294,AS54299,0.38268,2,2020-06-21_20h02.50.641,,,22
9.604958042,AS54299,0.270115,2,2020-06-21_20h02.50.641,,,23
3.844814571,AS54299,0.3644,2,2020-06-21_20h02.50.641,,,24
5.495900712,AS54299,0.300885,2,2020-06-21_20h02.50.641,,,25
6.374797531,AS54299,0.337165,2,2020-06-21_20h02.50.641,,,26
6.16711864,AS54299,0.247975,2,2020-06-21_20h02.50.641,,,27
4.736648521,AS54299,0.29156,2,2020-06-21_20h02.50.641,,,28
3.099804621,AS54299,0.34221,2,2020-06-21_20h02.50.641,,,29
6.599064372,AS54299,1.64299,2,2020-06-21_20h02.50.641,,,30
9.426637486,AS54299,0.29719,2,2020-06-21_20h02.50.641,,,31
5.577805905,AS54299,0.43497,2,2020-06-21_20h02.50.641,,,32
7.309112786,AS54299,0.38196,2,2020-06-21_20h02.50.641,,,33
3.738349489,AS54299,0.35002,2,2020-06-21_20h02.50.641,,,34
4.035039512,AS54299,0.349315,2,2020-06-21_20h02.50.641,"[""space""]",[0.1859849999891594],35
4.864922904,AS54299,0.286205,2,2020-06-21_20h02.50.641,,,36
8.278515854,AS54299,0.342525,2,2020-06-21_20h02.50.641,,,37
7.497443603,AS54299,0.398575,2,2020-06-21_20h02.50.641,,,38
8.27264481,AS54299,0.31632,2,2020-06-21_20h02.50.641,,,39
7.000851807,AS54299,0.36964,2,2020-06-21_20h02.50.641,"[""space""]",[5.067724999971688],40
2.901892538,AS54299,0.52327,2,2020-06-21_20h02.50.641,,,41
4.379091131,AS54299,0.329425,2,2020-06-21_20h02.50.641,,,42
3.107462602,AT55010,0.62804,1,2020-05-09_11h33.12.987,,,0
9.799136121,AT55010,0.452345,1,2020-05-09_11h33.12.987,"[""space""]",[3.9198850000002494],1
2.431725666,AT55010,0.30523,1,2020-05-09_11h33.12.987,,,2
2.068127647,AT55010,0.217685,1,2020-05-09_11h33.12.987,,,3
2.500905801,AT55010,0.317435,1,2020-05-09_11h33.12.987,"[""space"",""space""]","[0.6671900000001187,2.032510000000002]",4
9.970428074,AT55010,0.252515,1,2020-05-09_11h33.12.987,,,5
5.788875685,AT55010,0.35013,1,2020-05-09_11h33.12.987,,,6
3.514759259,AT55010,0.417185,1,2020-05-09_11h33.12.987,,,7
7.863422902,AT55010,0.05127,1,2020-05-09_11h33.12.987,"[""space"",""space"",""space"",""space"",""space"",""space"",""space"",""space"",""space""]","[4.917419999999765,6.151149999999689,6.333714999999771,6.638249999999971,6.833514999999338,7.0362499999992,7.217724999999504,7.38576999999988,7.66913999999997]",8
6.296633043,AT55010,0.00584,1,2020-05-09_11h33.12.987,"[""space"",""space"",""space"",""space"",""space"",""space""]","[4.783494999999675,5.150799999999435,5.352460000000065,5.566275000000118,5.784349999999904,6.116570000000138]",9
6.350878201,AT55010,0.20229,1,2020-05-09_11h33.12.987,"[""space"",""space""]","[5.867169999999504,6.150485000000089]",10
4.672384458,AT55010,0.067895,1,2020-05-09_11h33.12.987,"[""space"",""space""]","[4.355665000000059,4.53251499999989]",11
6.820071794,AT55010,0.066955,1,2020-05-09_11h33.12.987,"[""space"",""space"",""space"",""space"",""space"",""space"",""space"",""space"",""space"",""space"",""space"",""space"",""space"",""space"",""space"",""space"",""space"",""space"",""space"",""space"",""space"",""space"",""space"",""space"",""space"",""space"",""space"",""space"",""space"",""space"",""space"",""space"",""space"",""space"",""space"",""space""]","[0.3509299999996216,0.5494499999995099,0.9192349999993894,1.1172699999997207,1.3004449999998684,1.4513099999994807,1.6205399999998917,1.7846899999995145,1.9505199999994005,2.099079999999958,2.249269999999356,2.4509250000001117,2.5995649999995436,2.734809999999925,2.902755000000056,3.068279999999504,3.2060700000001816,3.349325000000121,3.505619999999908,3.652814999999464,3.817924999999377,3.9897649999993376,4.1506049999998,4.302929999999833,4.48462999999991,4.784314999999893,4.95107499999996,5.133119999999494,5.284299999999348,5.750994999999406,5.951379999999503,6.167644999999538,6.2869700000001245,6.434484999999768,6.584960000000137,6.735029999999824]",12
8.88924118,AT55010,0.00162,1,2020-05-09_11h33.12.987,"[""space"",""space"",""space"",""space"",""space"",""space"",""space"",""space"",""space"",""space"",""space""]","[6.8500850000000355,7.032389999999381,7.200479999999516,7.36772000000019,7.500759999999914,7.667414999999892,7.950064999999981,8.121594999999601,8.272044999999707,8.566574999999816,8.700759999999718]",13
5.27173467,AT55010,0.502285,1,2020-05-09_11h33.12.987,,,14
8.233633519,AT55010,0.13363,1,2020-05-09_11h33.12.987,"[""space"",""space"",""space"",""space"",""space"",""space"",""space"",""space"",""space"",""space"",""space""]","[6.382830000000467,6.56758999999964,6.7340500000000105,6.917569999999614,7.184154999999919,7.367309999999634,7.534115000000384,7.700399999999718,7.86730499999976,8.021780000000035,8.182695000000422]",15
2.046683077,AT55010,0.48297,1,2020-05-09_11h33.12.987,,,16
4.602321589,AT55010,0.08312,1,2020-05-09_11h33.12.987,"[""space"",""space"",""space"",""space"",""space""]","[3.1851550000001225,3.51767000000018,3.7676149999997506,4.13385500000004,4.4990049999996415]",17
7.216470164,AT55010,0.01755,1,2020-05-09_11h33.12.987,"[""space"",""space"",""space"",""space"",""space"",""space"",""space"",""space"",""space"",""space"",""space"",""space"",""space"",""space"",""space"",""space"",""space"",""space"",""space"",""space"",""space"",""space"",""space"",""space"",""space"",""space"",""space"",""space"",""space"",""space"",""space"",""space"",""space"",""space"",""space"",""space"",""space"",""space"",""space"",""space""]","[0.3711249999996653,0.7052850000000035,0.9003649999995105,1.0843549999999595,1.2509449999997742,1.433799999999792,1.6173499999995045,1.9170599999997648,2.1011099999996077,2.283934999999474,2.45049999999992,2.6032949999998607,2.7666449999996985,2.917429999999513,3.0675899999996545,3.216614999999365,3.3673599999993087,3.5009700000000237,3.668044999999438,3.8349749999997584,3.984504999999416,4.133794999999736,4.300564999999551,4.453669999999875,4.617734999999811,4.770399999999427,4.919074999999793,5.100089999999909,5.250309999999445,5.416725000000042,5.566794999999729,5.7170149999992645,5.87119999999959,6.050379999999649,6.216604999999618,6.400504999999612,6.566594999999353,6.733754999999292,6.900119999999333,7.067159999999603]",18
8.577217137,AT55010,0.12223,1,2020-05-09_11h33.12.987,"[""space"",""space"",""space"",""space"",""space"",""space"",""space"",""space"",""space"",""space"",""space"",""space"",""space"",""space"",""space"",""space"",""space"",""space"",""space"",""space""]","[5.315924999999908,5.539620000000497,5.733960000000479,5.917320000000473,6.070285000000695,6.236175000000003,6.403949999999895,6.56809500000054,6.717525000000023,6.8713150000003225,7.017214999999851,7.183745000000272,7.350954999999885,7.517174999999952,7.683240000000296,7.837355000000599,8.00034500000038,8.167895000000499,8.349060000000463,8.517354999999952]",19
6.659456787,AT55010,0.369095,1,2020-05-09_11h33.12.987,,,20
9.817704925,AT55010,0.138195,1,2020-05-09_11h33.12.987,"[""space"",""space"",""space"",""space"",""space"",""space"",""space"",""space"",""space"",""space"",""space"",""space"",""space"",""space"",""space"",""space"",""space"",""space"",""space"",""space""]","[6.4842400000006535,6.671175000000403,6.986110000000707,7.153565000000526,7.317740000000413,7.470980000000054,7.615940000000592,7.767170000000078,8.06753000000026,8.237620000000788,8.382355000000672,8.550335000000814,8.706080000000838,8.85046500000044,9.000650000000888,9.167265000000043,9.30479000000014,9.467344999999995,9.650195000000167,9.788570000000618]",21
2.706818507,AT55010,0.316525,1,2020-05-09_11h33.12.987,,,22
4.783704617,AT55010,0.018025,1,2020-05-09_11h33.12.987,"[""space"",""space"",""space"",""space"",""space"",""space"",""space"",""space"",""space"",""space"",""space"",""space"",""space"",""space"",""space"",""space"",""space"",""space"",""space"",""space""]","[0.38436000000001513,0.6000199999998301,0.7666250000002037,0.9514099999996972,1.1019500000002154,1.417950000000019,1.5847450000001118,1.7552000000005137,1.9161149999999907,2.217810000000128,2.4013999999997395,2.537739999999758,2.7197400000004563,2.8847900000000664,3.583389999999781,3.784375000000182,4.12021999999979,4.300850000000537,4.468135000000075,4.634465000000091]",23
5.280058927,AT55010,0.06788,1,2020-05-09_11h33.12.987,"[""space"",""space"",""space"",""space"",""space"",""space"",""space"",""space"",""space"",""space"",""space"",""space"",""space"",""space"",""space"",""space"",""space"",""space"",""space"",""space"",""space"",""space"",""space"",""space"",""space"",""space"",""space"",""space""]","[0.1508899999999187,0.3174300000000585,0.4676349999999445,0.6342500000000655,0.7837449999996977,0.9506099999998696,1.1172849999993275,1.2843450000000303,1.4356899999993402,1.6005799999993542,1.7830800000001261,1.9364949999999226,2.61730499999976,2.751110000000182,3.0022699999999816,3.117449999999735,3.384264999999658,3.6339549999993324,3.837814999999864,4.050214999999298,4.200334999999541,4.317720000000008,4.450824999999895,4.569515000000138,4.717509999999493,4.866430000000037,5.134109999999964,5.2323900000001515]",24
9.78177433,AT55010,0.05299,1,2020-05-09_11h33.12.987,"[""space"",""space"",""space"",""space"",""space"",""space"",""space"",""space"",""space"",""space"",""space"",""space"",""space"",""space"",""space"",""space"",""space"",""space"",""space"",""space"",""space"",""space"",""space"",""space"",""space"",""space"",""space"",""space"",""space"",""space"",""space"",""space"",""space"",""space""]","[0.18386000000009517,0.4332000000004257,0.7179950000000019,0.984150000000227,5.00028999999995,5.13476499999976,5.417489999999816,5.516454999999951,5.7328550000002,5.953314999999776,6.1327799999999115,6.302195000000211,6.466400000000249,6.617229999999836,6.771240000000034,6.900560000000041,7.066045000000514,7.220440000000053,7.353619999999864,7.5010499999998785,7.650174999999734,7.788279999999759,7.951434999999918,8.085614999999962,8.255040000000008,8.406214999999946,8.584749999999985,8.7175900000002,8.867299999999886,9.00106500000038,9.154335000000202,9.321399999999812,9.500630000000456,9.653435000000172]",25
5.395863582,AT55010,0.10118,1,2020-05-09_11h33.12.987,"[""space"",""space""]","[5.150630000000035,5.335665000000489]",26
9.402630588,AT55010,0.035585,1,2020-05-09_11h33.12.987,"[""space"",""space"",""space"",""space"",""space"",""space"",""space"",""space"",""space"",""space"",""space"",""space"",""space"",""space"",""space"",""space"",""space"",""space"",""space"",""space"",""space"",""space"",""space"",""space"",""space"",""space"",""space"",""space"",""space"",""space"",""space""]","[4.532665000000634,4.719535000000178,4.8695400000005975,5.01971500000036,5.166070000000218,5.317149999999856,5.4832599999999445,5.616539999999986,5.766660000000201,5.916340000000673,6.071520000000447,6.233114999999998,6.397860000000065,6.5702000000001135,6.72287000000054,6.883440000000547,7.050125000000634,7.199570000000676,7.3484550000002855,7.532804999999826,7.681704999999965,7.816585000000487,7.98482000000061,8.136645000000499,8.282839999999851,8.483334999999926,8.617299999999886,8.736615000000683,8.932945000000473,9.099210000000312,9.266145000000478]",27
6.602706121,AT55010,0.01963,1,2020-05-09_11h33.12.987,"[""space"",""space"",""space"",""space"",""space"",""space"",""space"",""space""]","[5.10102999999981,5.317315000000235,5.484054999999898,5.634159999999611,5.983970000000227,6.170049999999719,6.304244999999355,6.466559999999845]",28
2.517513456,AT55010,0.366805,1,2020-05-09_11h33.12.987,,,29
3.985853138,AT55010,0.335955,1,2020-05-09_11h33.12.987,,,30
2.558473575,AT55010,0.300855,1,2020-05-09_11h33.12.987,,,31
9.522379538,AT55010,0.120165,1,2020-05-09_11h33.12.987,"[""space"",""space"",""space"",""space"",""space"",""space"",""space"",""space"",""space"",""space"",""space"",""space"",""space"",""space"",""space"",""space"",""space""]","[5.432809999999364,5.6677949999994155,6.017355000000009,6.2841949999993005,6.521769999999378,6.800284999999377,7.050169999999554,7.266904999999525,7.48614499999988,7.70060999999987,8.055064999999587,8.283564999999754,8.517030000000005,8.717109999999622,8.902759999999972,9.235089999999246,9.451009999999798]",32
4.9441404,AT55010,0.017765,1,2020-05-09_11h33.12.987,"[""space"",""space"",""space"",""space"",""space"",""space"",""space"",""space"",""space"",""space"",""space"",""space"",""space"",""space"",""space"",""space"",""space"",""space"",""space"",""space""]","[0.16736000000037166,0.3668649999999616,0.6034950000002937,0.8837549999998373,1.1496150000002388,1.6169550000004165,1.8715750000001208,2.1025300000001153,2.3335150000002898,2.55083999999988,2.7500449999997727,2.966400000000249,3.186695000000327,3.4167999999999665,3.6346149999999398,3.855029999999715,4.08319500000016,4.288234999999986,4.504410000000462,4.734480000000076]",33
9.1912221,AT55010,0.600355,1,2020-05-09_11h33.12.987,"[""space"",""space"",""space"",""space"",""space"",""space"",""space"",""space"",""space"",""space"",""space"",""space"",""space"",""space"",""space"",""space"",""space"",""space"",""space"",""space"",""space"",""space"",""space"",""space"",""space"",""space"",""space"",""space"",""space"",""space"",""space"",""space"",""space"",""space"",""space"",""space""]","[0.15494000000035157,0.3834600000000137,0.6195700000007491,0.8500350000003891,1.0668250000007902,1.2695650000005116,1.500130000000354,1.715465000000222,1.934030000000348,2.1837700000005498,2.4006200000003446,2.635400000000118,2.8665350000001126,3.08547500000077,3.3051400000003923,3.568000000000211,3.783650000000307,4.0201450000004115,4.2343100000007325,4.467105000000629,4.719555000000582,4.9665100000001985,5.202400000000125,5.45015500000045,5.668590000000222,5.917065000000548,6.166610000000219,6.400849999999991,6.650225000000319,6.8891050000002,7.555955000000722,7.783275000000685,8.000390000000152,8.249690000000498,8.499695000000429,8.701170000000275]",34
6.263141607,AT55010,0.15099,1,2020-05-09_11h33.12.987,"[""space"",""space"",""space"",""space"",""space"",""space"",""space"",""space"",""space"",""space"",""space"",""space"",""space"",""space"",""space"",""space"",""space"",""space"",""space"",""space"",""space"",""space"",""space"",""space"",""space""]","[0.11668499999996129,0.40331499999956577,0.6691949999994904,0.9013299999996889,1.1362199999994118,1.3851699999995617,1.6335699999999633,1.8872199999996724,2.1338749999995343,2.3835849999995844,2.6161999999995373,2.8886899999997695,3.151369999999588,3.3869449999992867,3.6341050000001474,3.851274999999987,4.083409999999276,4.318255000000136,4.567809999999554,4.801619999999275,5.020419999999831,5.268149999999878,5.498204999999871,5.950404999999591,6.2038800000000265]",35
2.880450952,AT55010,0.186335,1,2020-05-09_11h33.12.987,"[""space"",""space"",""space"",""space"",""space"",""space"",""space"",""space"",""space"",""space""]","[0.08640999999988708,0.3173299999998562,0.700745000000154,0.9168900000004214,1.3160250000000815,1.636655000000303,1.935389999999643,2.2173000000002503,2.500974999999926,2.7840900000001056]",36
4.632901956,AT55010,0.10109,1,2020-05-09_11h33.12.987,"[""space"",""space"",""space"",""space"",""space"",""space"",""space"",""space"",""space"",""space"",""space"",""space"",""space"",""space"",""space"",""space"",""space"",""space"",""space"",""space""]","[0.28250000000025466,0.5507250000000568,0.8173399999996036,1.0670749999999316,1.301209999999628,1.5339750000002823,1.753950000000259,2.0043550000000323,2.237594999999601,2.500409999999647,2.7175799999995434,2.9348049999998693,3.1523749999996653,3.3342549999997573,3.534585000000334,3.7337900000002264,3.9337649999997666,4.122370000000046,4.333770000000186,4.517479999999466]",37
2.447840043,AT55010,0.15535,1,2020-05-09_11h33.12.987,"[""space"",""space"",""space"",""space"",""space"",""space"",""space"",""space"",""space""]","[0.36735500000031607,0.6030399999999645,0.8189899999997579,1.2512800000004063,1.5030800000004092,1.7171049999997194,1.9348200000003999,2.16709499999979,2.384030000000166]",38
4.124514056,AT55010,0.050915,1,2020-05-09_11h33.12.987,"[""space"",""space"",""space"",""space"",""space"",""space"",""space"",""space"",""space"",""space"",""space"",""space"",""space"",""space"",""space"",""space"",""space""]","[0.06747999999970489,0.3036099999999351,0.5326399999994464,0.7501249999995707,0.9663449999998193,1.200909999999567,1.4339799999997922,1.6669199999996636,1.9003450000000157,2.1178099999997357,2.3537399999995614,2.601340000000164,2.8174300000000585,3.0508700000000317,3.300409999999829,3.51767000000018,3.8529149999994843]",39
6.060241074,AT55010,0.050305,1,2020-05-09_11h33.12.987,"[""space"",""space"",""space"",""space"",""space"",""space"",""space"",""space"",""space"",""space"",""space"",""space"",""space"",""space"",""space"",""space"",""space"",""space"",""space"",""space"",""space"",""space"",""space"",""space"",""space"",""space"",""space"",""space"",""space"",""space"",""space"",""space"",""space"",""space"",""space"",""space""]","[0.43419499999987465,0.7035649999998554,1.017855000000111,1.2673900000000344,1.5007800000003613,1.7028449999999111,1.8672999999999433,2.022829999999942,2.167905000000303,2.334319999999991,2.452940000000183,2.6175499999999943,2.7531449999997335,2.9011099999998464,3.051419999999837,3.186464999999828,3.3505150000001436,3.500629999999603,3.618260000000248,3.7675099999997315,3.9171150000002513,4.05119000000019,4.184189999999944,4.3178850000004445,4.437289999999905,4.584214999999915,4.732984999999701,4.8723099999998,5.000869999999907,5.135344999999745,5.272914999999614,5.416290000000174,5.536970000000167,5.684599999999648,5.817465000000084,5.982635000000414]",40
3.791841437,AT55010,0.30424,1,2020-05-09_11h33.12.987,,,41
5.416483101,AT55010,0.019225,1,2020-05-09_11h33.12.987,"[""space"",""space"",""space"",""space"",""space"",""space"",""space"",""space"",""space"",""space"",""space"",""space"",""space"",""space"",""space"",""space"",""space"",""space"",""space""]","[2.2337600000001316,2.451014999999643,2.6052300000001196,2.7835549999999785,2.9504299999998693,3.116234999999506,3.300299999999936,3.466844999999978,3.618254999999408,3.7825400000001537,3.950420000000122,4.11741499999971,4.283950000000004,4.452994999999646,4.632544999999482,4.784249999999702,4.95131500000025,5.121854999999414,5.269395000000202]",42
5.203167827,AT55010,0.136795,1,2020-05-09_11h33.12.987,"[""space"",""space"",""space"",""space"",""space"",""space"",""space"",""space"",""space"",""space"",""space""]","[2.9002700000001482,3.09940499999999,3.254365000000689,3.4363899999999035,3.75093000000021,3.933950000000607,4.100734999999986,4.450515000000507,4.787530000000572,4.98478500000067,5.168140000000733]",43
5.605408722,AT55010,0.563195,2,2020-05-16_10h25.48.561,"[""space""]",[3.3355850000007194],0
2.639344165,AT55010,0.252435,2,2020-05-16_10h25.48.561,,,1
6.365668788,AT55010,0.28409,2,2020-05-16_10h25.48.561,"[""space"",""space"",""space"",""space"",""space"",""space"",""space"",""space"",""space"",""space"",""space"",""space"",""space"",""space""]","[0.167170000000624,0.7337750000006054,1.1836849999963306,2.1174449999962235,2.3506649999981164,3.2866099999955622,3.584304999996675,3.8205249999955413,4.10055999999895,4.521804999996675,5.019099999997707,5.233544999995502,5.685249999994994,5.9173549999977695]",2
4.785292482,AT55010,0.239005,2,2020-05-16_10h25.48.561,"[""space"",""space"",""space"",""space"",""space"",""space"",""space"",""space""]","[1.7013299999962328,1.9508249999998952,2.38398999999481,2.620489999993879,3.1171699999977136,3.303619999998773,3.7879749999992782,4.019639999998617]",3
5.369981436,AT55010,0.2031,2,2020-05-16_10h25.48.561,"[""space"",""space"",""space"",""space"",""space"",""space"",""space"",""space"",""space"",""space"",""space"",""space"",""space"",""space"",""space"",""space"",""space"",""space"",""space"",""space"",""space"",""space"",""space""]","[0.11758999999437947,0.5556499999947846,0.7871349999986705,1.0175149999995483,1.250434999994468,1.5004750000007334,1.7193149999948218,1.9497950000004494,2.150709999994433,2.3505999999979394,2.533789999994042,2.7172999999966123,3.084369999996852,3.2836849999948754,3.48713499999576,3.7678299999970477,3.950809999994817,4.150864999995974,4.338904999996885,4.550939999993716,4.750849999996717,4.950294999995094,5.157069999993837]",4
7.582040868,AT55010,0.16969,2,2020-05-16_10h25.48.561,"[""space"",""space"",""space"",""space"",""space"",""space"",""space"",""space"",""space"",""space"",""space"",""space"",""space"",""space"",""space"",""space"",""space"",""space"",""space"",""space"",""space"",""space"",""space"",""space"",""space"",""space"",""space"",""space"",""space"",""space"",""space"",""space"",""space"",""space"",""space"",""space"",""space""]","[0.1837050000031013,0.43396999999822583,0.6826450000007753,0.9007649999985006,1.1195799999986775,1.3667399999976624,1.6006849999976112,1.8202200000014273,2.033609999998589,2.2668699999994715,2.485869999996794,2.7162499999976717,2.9372999999977765,3.150340000000142,3.350720000002184,3.5561349999989034,3.7503149999974994,3.9378950000027544,4.118679999999586,4.3051049999994575,4.487704999999551,4.672375000001921,4.868605000003299,5.050389999996696,5.233775000000605,5.41846500000247,5.600765000002866,5.787049999998999,5.987135000003036,6.166729999997187,6.350579999998445,6.550454999996873,6.7513400000025285,6.966639999998733,7.149499999999534,7.3502450000014505,7.554714999998396]",5
3.518701969,AT55010,0.099935,2,2020-05-16_10h25.48.561,"[""space"",""space"",""space"",""space"",""space"",""space"",""space"",""space"",""space"",""space"",""space"",""space"",""space"",""space"",""space"",""space"",""space""]","[0.04914999999891734,0.2829649999985122,0.4690699999991921,0.683389999998326,0.8821349999998347,1.1011799999978393,1.3187550000002375,1.537529999994149,1.7667699999947217,1.9995449999987613,2.2000649999972666,2.3833249999952386,2.5658299999995506,2.7729249999974854,2.9995749999943655,3.216739999996207,3.3990799999955925]",6
9.736294188,AT55010,0.03902,2,2020-05-16_10h25.48.561,"[""space"",""space"",""space"",""space"",""space"",""space"",""space"",""space"",""space"",""space"",""space"",""space"",""space"",""space"",""space"",""space"",""space"",""space"",""space"",""space"",""space"",""space"",""space"",""space"",""space"",""space"",""space"",""space"",""space"",""space"",""space"",""space"",""space"",""space"",""space"",""space"",""space"",""space"",""space"",""space"",""space"",""space"",""space"",""space""]","[0.05151499999919906,0.25050999999803025,0.4678399999975227,0.6845699999976205,0.8845599999986007,1.0841999999975087,1.3002699999997276,1.5176999999966938,1.7344349999984843,1.9350199999971665,2.134200000000419,2.337714999994205,2.551079999997455,2.76784499999485,2.95649499999854,3.167409999994561,3.3668949999992037,3.584339999993972,3.7704949999970268,3.984359999994922,4.172054999995453,4.384879999997793,4.617679999995744,4.854559999999765,5.073739999999816,5.301229999997304,5.503784999993513,5.71762999999919,5.934750000000349,6.170539999999164,6.40251499999431,6.617954999994254,6.834189999994123,7.050934999999299,7.267634999996517,7.520529999994324,7.784399999996822,8.02127499999915,8.251149999996414,8.452764999994542,8.840149999996356,9.068409999999858,9.317514999995183,9.540134999995644]",7
6.431097167,AT55010,0.050445,2,2020-05-16_10h25.48.561,"[""space"",""space"",""space"",""space"",""space"",""space"",""space"",""space"",""space"",""space"",""space"",""space"",""space"",""space"",""space"",""space"",""space"",""space"",""space"",""space"",""space"",""space"",""space"",""space"",""space""]","[0.02530000000115251,0.28434500000003027,0.5344750000003842,0.7843749999956344,1.0676299999977346,1.5534199999965494,1.7862549999990733,2.0511249999981374,2.301455000000715,2.554165000001376,2.8180999999967753,3.088530000000901,3.338595000001078,3.6006999999954132,3.8547249999974156,4.086484999999811,4.334374999998545,4.601004999996803,4.86757999999827,5.12187499999709,5.3887699999977485,5.61788499999966,5.817749999994703,6.034609999995155,6.254074999997101]",8
6.452981657,AT55010,0.01824,2,2020-05-16_10h25.48.561,"[""space"",""space"",""space"",""space"",""space"",""space"",""space"",""space"",""space"",""space"",""space"",""space"",""space"",""space"",""space"",""space""]","[3.5372150000039255,3.7504450000051293,3.9349399999991874,4.115989999998419,4.3008650000047055,4.487505000004603,4.666165000002366,4.833610000001499,5.003725000002305,5.199939999998605,5.369024999999965,5.550085000002582,5.7337249999982305,5.918150000004971,6.100350000000617,6.283710000003339]",9
2.653383881,AT55010,0.41716,2,2020-05-16_10h25.48.561,,,10
5.526361861,AT55010,0.151865,2,2020-05-16_10h25.48.561,"[""space"",""space"",""space"",""space"",""space"",""space"",""space""]","[2.019395000002987,3.071380000001227,3.317705000001297,4.3214200000002165,4.850619999997434,5.300804999998945,5.483229999998002]",11
8.714772524,AT55010,0.13411,2,2020-05-16_10h25.48.561,"[""space"",""space"",""space"",""space"",""space"",""space"",""space"",""space"",""space"",""space"",""space"",""space"",""space"",""space"",""space"",""space"",""space"",""space"",""space"",""space"",""space"",""space"",""space"",""space""]","[3.8777100000006612,4.066720000002533,4.25085499999841,4.417464999998629,4.583729999998468,4.754200000003038,4.916890000000421,5.083575000004203,5.249900000002526,5.417205000005197,5.568254999998317,5.750330000002577,5.903689999999187,6.066259999999602,6.221675000000687,6.383805000004941,6.5343900000007125,6.832890000005136,7.621680000003835,7.7891750000053435,7.9670550000009825,8.117350000000442,8.283595000000787,8.449424999998882]",12
6.385836518,AT55010,0.101975,2,2020-05-16_10h25.48.561,"[""space"",""space"",""space"",""space"",""space"",""space""]","[5.552575000001525,5.719825000000128,5.884705000004033,6.038919999999052,6.184959999998682,6.333075000002282]",13
4.934921674,AT55010,0.106205,2,2020-05-16_10h25.48.561,"[""space"",""space"",""space"",""space"",""space"",""space"",""space"",""space"",""space"",""space"",""space""]","[3.3849499999996624,3.557184999997844,3.7056699999957345,3.8681849999993574,4.034394999995129,4.186414999996487,4.26722499999596,4.352359999997134,4.51817999999912,4.684495000001334,4.851349999997183]",14
4.653614122,AT55010,0.11932,2,2020-05-16_10h25.48.561,"[""space"",""space"",""space""]","[4.1669849999962025,4.317499999997381,4.474719999998342]",15
8.774264624,AT55010,0.101795,2,2020-05-16_10h25.48.561,"[""space"",""space"",""space"",""space"",""space"",""space"",""space"",""space"",""space"",""space"",""space"",""space"",""space"",""space"",""space"",""space"",""space"",""space"",""space"",""space"",""space"",""space"",""space"",""space""]","[4.686179999996966,4.86641999999847,5.033770000001823,5.188105000001087,5.350659999996424,5.466820000001462,5.650594999999157,5.822204999996757,5.983039999999164,6.133739999997488,6.22127499999624,6.416180000000168,6.601770000001125,6.799739999994927,7.000684999999066,7.18347999999969,7.402624999995169,7.604289999995672,7.799825000001874,7.989349999996193,8.187955000001239,8.366909999997006,8.53516999999556,8.701029999996535]",16
5.395266177,AT55010,0.001595,2,2020-05-16_10h25.48.561,,,17
8.545014545,AT55010,0.03432,2,2020-05-16_10h25.48.561,"[""space"",""space"",""space"",""space"",""space"",""space"",""space"",""space"",""space"",""space"",""space"",""space"",""space"",""space"",""space"",""space"",""space"",""space"",""space"",""space"",""space"",""space""]","[5.234309999999823,5.333355000002484,5.5840900000039255,5.784090000001015,5.983944999999949,6.186139999997977,6.270140000000538,6.516840000003867,6.718254999999772,6.937770000004093,7.150634999998147,7.366950000003271,7.500460000002931,7.600950000000012,7.7341099999975995,7.8030650000000605,7.934225000004517,8.017429999999877,8.150330000004033,8.23356000000058,8.369839999999385,8.455370000003313]",18
9.473414337,AT55010,0.122,2,2020-05-16_10h25.48.561,"[""space"",""space"",""space"",""space"",""space"",""space"",""space"",""space"",""space"",""space"",""space"",""space"",""space"",""space"",""space"",""space"",""space""]","[1.9507299999968382,5.266304999997374,5.351839999995718,5.966905000001134,6.567064999995637,7.267149999999674,7.583039999997709,7.750099999997474,7.93378500000108,8.116425000000163,8.266434999997728,8.4331749999983,8.600534999997762,8.767084999999497,8.934779999995953,9.251444999994419,9.40638499999477]",19
3.197860544,AT55010,0.43411,2,2020-05-16_10h25.48.561,,,20
6.872417371,AT55010,0.050805,2,2020-05-16_10h25.48.561,"[""space"",""space"",""space"",""space"",""space"",""space"",""space""]","[0.556734999998298,4.600290000002133,5.216935000004014,5.484810000001744,5.790560000001278,6.051294999997481,6.6178300000028685]",21
7.713629225,AT55010,0.150745,2,2020-05-16_10h25.48.561,"[""space"",""space"",""space"",""space"",""space"",""space"",""space"",""space"",""space"",""space"",""space"",""space"",""space"",""space"",""space"",""space"",""space"",""space"",""space""]","[0.1299799999978859,2.830664999994042,3.1489650000003166,3.4301849999974365,3.68062999999529,4.263844999994035,4.4466449999963515,4.716829999997572,4.882204999994428,5.180274999998801,5.330744999999297,5.547224999994796,5.746544999994512,5.996824999994715,6.43603499999881,6.683664999996836,6.9640049999943585,7.249029999999038,7.552719999999681]",22
8.909727233,AT55010,0.03583,2,2020-05-16_10h25.48.561,"[""space"",""space"",""space"",""space"",""space"",""space"",""space"",""space"",""space"",""space"",""space"",""space"",""space"",""space"",""space"",""space"",""space"",""space"",""space"",""space"",""space"",""space"",""space""]","[0.11712499999703141,0.45010000000183936,0.684000000001106,0.9507700000031036,1.6340300000010757,2.153924999998708,4.249709999996412,5.7005799999969895,6.300210000001243,6.567349999997532,6.7670500000022,6.939344999998866,7.117055000002438,7.300669999996899,7.4496650000000955,7.55449999999837,7.721649999999499,7.900099999998929,8.068480000001728,8.250339999998687,8.402119999998831,8.584024999996473,8.700259999997797]",23
2.909489511,AT55010,0.234895,2,2020-05-16_10h25.48.561,"[""space"",""space"",""space"",""space""]","[1.0862100000013015,1.6670000000012806,1.9262000000016997,2.8171650000003865]",24
5.041299895,AT55010,0.100515,2,2020-05-16_10h25.48.561,"[""space"",""space"",""space"",""space"",""space"",""space"",""space"",""space"",""space"",""space""]","[0.18934499999886611,1.083070000000589,2.2504400000034366,2.521795000000566,3.4494249999988824,3.7332900000037625,4.000260000000708,4.266309999999066,4.60031500000332,4.88323500000115]",25
3.655708112,AT55010,0.07171,2,2020-05-16_10h25.48.561,"[""space"",""space"",""space"",""space"",""space"",""space"",""space""]","[1.36652000000322,1.8502450000014505,2.520680000001448,2.833810000003723,3.0718350000024657,3.332940000000235,3.5495800000062445]",26
2.861278985,AT55010,0.05554,2,2020-05-16_10h25.48.561,"[""space"",""space"",""space"",""space"",""space"",""space""]","[0.1058000000048196,0.6834350000062841,1.35089500000322,1.9493250000014086,2.4508550000027753,2.6999250000008033]",27
2.102579158,AT55010,0.2843,2,2020-05-16_10h25.48.561,,,28
9.044754744,AT55010,0.13567,2,2020-05-16_10h25.48.561,"[""space"",""space"",""space"",""space"",""space"",""space"",""space"",""space"",""space"",""space"",""space"",""space"",""space"",""space"",""space"",""space"",""space"",""space"",""space"",""space"",""space"",""space"",""space"",""space"",""space"",""space"",""space"",""space"",""space"",""space"",""space"",""space"",""space"",""space"",""space"",""space"",""space"",""space"",""space""]","[1.256165000006149,1.7198950000019977,1.9377950000052806,2.267644999999902,2.4852500000051805,2.6838150000039604,2.9001200000056997,3.0547000000005937,3.2378050000043004,3.449850000004517,3.633830000006128,3.833715000000666,4.01674500000081,4.207215000002179,4.403065000005881,4.600320000005013,4.7865900000033434,4.9858000000022,5.185110000005807,5.36703000000125,5.549595000004047,5.733150000000023,5.917380000006233,6.1167700000005425,6.316340000004857,6.506690000001981,6.699930000002496,6.883735000003071,7.066685000005236,7.255800000006275,7.450205000008282,7.633674999997311,7.850150000005669,8.034869999995863,8.238325000005716,8.452469999996538,8.617369999999937,8.816169999998237,9.000424999998359]",29
2.07376117,AT55010,0.33649,2,2020-05-16_10h25.48.561,,,30
6.234612521,AT55010,0.405275,2,2020-05-16_10h25.48.561,"[""space"",""space"",""space"",""space"",""space"",""space"",""space"",""space"",""space"",""space"",""space"",""space"",""space"",""space"",""space"",""space"",""space""]","[1.6011750000034226,2.1168150000012247,2.8510499999974854,3.0673050000041258,3.2682849999982864,3.4672449999925448,3.6670650000014575,3.85042999999132,4.0388050000037765,4.219379999994999,4.4341199999907985,4.600109999999404,4.799954999994952,4.984179999999469,5.1838949999946635,5.387489999993704,5.571759999991627]",31
7.828915039,AT55010,0.46913,2,2020-05-16_10h25.48.561,,,32
8.248360559,AT55010,0.03297,2,2020-05-16_10h25.48.561,"[""space"",""space"",""space"",""space"",""space"",""space"",""space"",""space"",""space"",""space"",""space"",""space"",""space"",""space"",""space"",""space"",""space"",""space"",""space"",""space"",""space"",""space"",""space"",""space"",""space"",""space"",""space"",""space"",""space"",""space"",""space"",""space"",""space"",""space"",""space"",""space"",""space"",""space""]","[1.6991500000003725,1.9162600000126986,2.115895000009914,2.268030000006547,2.4330450000124983,2.56617499999993,2.7331600000034086,2.9013450000056764,3.0829150000063237,3.2828450000088196,3.4664100000081817,3.6178950000030454,3.7877450000087265,3.9357600000075763,4.116465000013704,4.315760000012233,4.418035000009695,4.648620000007213,4.799840000006952,4.983045000000857,5.148280000008526,5.332490000000689,5.499035000000731,5.665960000013001,5.832890000005136,5.999485000007553,6.166190000003553,6.321520000012242,6.498470000005909,6.6825450000033015,6.853100000007544,7.03253000001132,7.215815000003204,7.386295000003884,7.5510850000137,7.732285000005504,7.916220000013709,8.09951000000001]",33
3.891340964,AT55010,0.25147,2,2020-05-16_10h25.48.561,"[""space"",""space""]","[0.4505100000096718,1.5669350000098348]",34
4.892836237,AT55010,0.05156,2,2020-05-16_10h25.48.561,"[""space"",""space"",""space"",""space"",""space"",""space""]","[3.422470000004978,3.6212050000031013,4.151035000002594,4.367485000009765,4.571830000000773,4.749995000005583]",35
8.684322791,AT55010,0.28377,2,2020-05-16_10h25.48.561,"[""space"",""space"",""space"",""space"",""space"",""space"",""space""]","[6.221765000009327,7.337180000002263,7.550360000008368,7.7223550000053365,8.13361000000441,8.302535000009811,8.500465000004624]",36
5.368778881,AT55010,0.35235,2,2020-05-16_10h25.48.561,"[""space""]",[1.8887899999972433],37
6.990708712,AT55010,0.01979,2,2020-05-16_10h25.48.561,"[""space"",""space"",""space"",""space"",""space"",""space"",""space"",""space"",""space"",""space""]","[4.956695000000764,5.471959999995306,5.656409999995958,5.833350000000792,6.006204999997863,6.1667449999949895,6.337180000002263,6.483615000004647,6.650624999994761,6.833490000004531]",38
9.010856785,AT55010,0.11913,2,2020-05-16_10h25.48.561,"[""space"",""space"",""space"",""space"",""space"",""space"",""space"",""space"",""space"",""space"",""space"",""space"",""space"",""space"",""space"",""space"",""space"",""space"",""space"",""space"",""space"",""space"",""space"",""space"",""space"",""space"",""space"",""space"",""space"",""space"",""space"",""space""]","[3.0053199999965727,3.2004849999939324,3.367450000005192,3.5199850000062725,3.6835100000025705,3.8507249999966007,4.166844999999739,4.900330000004033,5.089875000005122,5.250599999999395,5.400389999995241,5.536875000005239,5.700559999997495,5.8497800000041025,6.217109999997774,6.387505000006058,6.519765000004554,6.683720000000903,6.8336249999993015,7.0002800000074785,7.171335000006366,7.319749999995111,7.500580000007176,7.634420000002137,7.7894649999943795,7.93293999999878,8.100204999995185,8.266680000000633,8.436425000007148,8.59932999999728,8.77276000000711,8.95060999999987]",39
9.15042028,AT55010,0.305125,2,2020-05-16_10h25.48.561,"[""space"",""space"",""space"",""space"",""space"",""space"",""space"",""space"",""space"",""space"",""space"",""space""]","[3.4370300000009593,3.667090000002645,4.2501049999991665,4.581680000002962,5.183790000010049,5.351250000006985,5.517025000008289,6.2570400000113295,6.449870000011288,6.633735000010347,7.833585000000312,8.936509999999544]",40
2.305775231,AT55010,0.90515,2,2020-05-16_10h25.48.561,,,41
7.087542336,AT78643,0.334,1,2020-06-16_22h46.20.105,,,0
7.610927907,AT78643,0.275,1,2020-06-16_22h46.20.105,,,1
5.397280639,AT78643,0.389,1,2020-06-16_22h46.20.105,,,2
2.13043,AT78643,0.289,1,2020-06-16_22h46.20.105,,,3
8.401734466,AT78643,0.276,1,2020-06-16_22h46.20.105,,,4
8.746924057,AT78643,0.304,1,2020-06-16_22h46.20.105,,,5
8.640932089,AT78643,0.291,1,2020-06-16_22h46.20.105,,,6
4.081857388,AT78643,0.288,1,2020-06-16_22h46.20.105,,,7
4.102022233,AT78643,0.272,1,2020-06-16_22h46.20.105,,,8
3.279186651,AT78643,0.304,1,2020-06-16_22h46.20.105,,,9
2.172095056,AT78643,0.271,1,2020-06-16_22h46.20.105,,,10
4.638692823,AT78643,0.26,1,2020-06-16_22h46.20.105,,,11
3.821571192,AT78643,0.256,1,2020-06-16_22h46.20.105,,,12
7.502838051,AT78643,0.258,1,2020-06-16_22h46.20.105,,,13
9.178731668,AT78643,0.274,1,2020-06-16_22h46.20.105,,,14
7.496569643,AT78643,0.257,1,2020-06-16_22h46.20.105,,,15
9.054880733,AT78643,0.259,1,2020-06-16_22h46.20.105,,,16
9.595157841,AT78643,0.274,1,2020-06-16_22h46.20.105,,,17
8.540627852,AT78643,0.273,1,2020-06-16_22h46.20.105,,,18
6.724592174,AT78643,0.24,1,2020-06-16_22h46.20.105,,,19
6.915321149,AT78643,0.26,1,2020-06-16_22h46.20.105,,,20
3.250765687,AT78643,0.256,1,2020-06-16_22h46.20.105,,,21
2.451442266,AT78643,0.273,1,2020-06-16_22h46.20.105,,,22
5.108863566,AT78643,0.258,1,2020-06-16_22h46.20.105,,,23
8.409406613,AT78643,0.226,1,2020-06-16_22h46.20.105,,,24
3.27780083,AT78643,0.376,1,2020-06-16_22h46.20.105,,,25
2.561876794,AT78643,0.275,1,2020-06-16_22h46.20.105,,,26
7.708049162,AT78643,0.291,1,2020-06-16_22h46.20.105,,,27
8.310199431,AT78643,0.289,1,2020-06-16_22h46.20.105,,,28
4.544162583,AT78643,0.308,1,2020-06-16_22h46.20.105,,,29
9.848679256,AT78643,0.209,1,2020-06-16_22h46.20.105,,,30
2.386260395,AT78643,0.278,1,2020-06-16_22h46.20.105,"[""space""]",[0.6410000000000196],31
5.637094852,AT78643,0.269,1,2020-06-16_22h46.20.105,,,32
3.283564775,AT78643,0.292,1,2020-06-16_22h46.20.105,,,33
5.264686039,AT78643,0.238,1,2020-06-16_22h46.20.105,,,34
3.584463685,AT78643,0.289,1,2020-06-16_22h46.20.105,,,35
4.871281133,AT78643,0.267,1,2020-06-16_22h46.20.105,,,36
3.39464037,AT78643,0.259,1,2020-06-16_22h46.20.105,,,37
6.921916249,AT78643,0.25,1,2020-06-16_22h46.20.105,"[""space""]",[5.5090000000000146],38
3.86159517,AT78643,0.275,1,2020-06-16_22h46.20.105,,,39
6.397851731,AT78643,0.227,1,2020-06-16_22h46.20.105,"[""space""]",[0.6800000000000068],40
8.230019145,AT78643,0.273,1,2020-06-16_22h46.20.105,,,41
6.196655838,AT78643,0.274,1,2020-06-16_22h46.20.105,,,42
6.269088623,AW51942,0.288735,1,2020-06-18_02h06.01.636,,,0
7.722948284,AW51942,0.255245,1,2020-06-18_02h06.01.636,,,1
5.632514723,AW51942,0.299945,1,2020-06-18_02h06.01.636,,,2
7.968562911,AW51942,0.27349,1,2020-06-18_02h06.01.636,,,3
9.950868173,AW51942,0.2826,1,2020-06-18_02h06.01.636,,,4
4.904838407,AW51942,0.31934,1,2020-06-18_02h06.01.636,,,5
3.784413115,AW51942,0.31723,1,2020-06-18_02h06.01.636,,,6
2.974546885,AW51942,0.35267,1,2020-06-18_02h06.01.636,,,7
6.379579662,AW51942,0.29094,1,2020-06-18_02h06.01.636,,,8
3.313342209,AW51942,0.28484,1,2020-06-18_02h06.01.636,,,9
7.48396966,AW51942,0.25742,1,2020-06-18_02h06.01.636,,,10
4.496959684,AW51942,0.275,1,2020-06-18_02h06.01.636,,,11
2.011377081,AW51942,0.26827,1,2020-06-18_02h06.01.636,,,12
4.108951385,AW51942,0.28908,1,2020-06-18_02h06.01.636,,,13
4.716167478,AW51942,0.224405,1,2020-06-18_02h06.01.636,,,14
6.182341024,AW51942,0.257,1,2020-06-18_02h06.01.636,,,15
2.155772263,AW51942,0.30119,1,2020-06-18_02h06.01.636,,,16
2.036509819,AW51942,0.284345,1,2020-06-18_02h06.01.636,,,17
7.709049311,AW51942,0.273835,1,2020-06-18_02h06.01.636,,,18
2.310000822,AW51942,0.289615,1,2020-06-18_02h06.01.636,,,19
7.437920966,AW51942,0.267155,1,2020-06-18_02h06.01.636,,,20
5.767609759,AW51942,0.241505,1,2020-06-18_02h06.01.636,,,21
3.473181836,AW51942,0.303835,1,2020-06-18_02h06.01.636,,,22
7.886226301,AW51942,0.268135,1,2020-06-18_02h06.01.636,,,23
9.782501626,AW51942,0.2852,1,2020-06-18_02h06.01.636,,,24
3.713186513,AW51942,0.28375,1,2020-06-18_02h06.01.636,,,25
5.52389248,AW51942,0.28503,1,2020-06-18_02h06.01.636,,,26
4.678844943,AW51942,0.28475,1,2020-06-18_02h06.01.636,,,27
3.336247326,AW51942,0.29866,1,2020-06-18_02h06.01.636,,,28
7.813407114,AW51942,0.300805,1,2020-06-18_02h06.01.636,,,29
7.82280455,AW51942,0.272265,1,2020-06-18_02h06.01.636,,,30
3.002497895,AW51942,0.293295,1,2020-06-18_02h06.01.636,,,31
8.628365063,AW51942,0.256695,1,2020-06-18_02h06.01.636,,,32
5.226624325,AW51942,0.275715,1,2020-06-18_02h06.01.636,,,33
6.4824477,AW51942,0.26816,1,2020-06-18_02h06.01.636,,,34
7.018878051,AW51942,0.34191,1,2020-06-18_02h06.01.636,,,35
6.24008908,AW51942,0.330035,1,2020-06-18_02h06.01.636,,,36
3.852412201,AW51942,0.27534,1,2020-06-18_02h06.01.636,,,37
4.350837579,AW51942,0.272615,1,2020-06-18_02h06.01.636,,,38
6.151396404,AW51942,0.320555,1,2020-06-18_02h06.01.636,"[""space""]",[1.3760850000035134],39
2.037559929,AW51942,0.383455,1,2020-06-18_02h06.01.636,,,40
8.566138742,AW51942,0.267265,1,2020-06-18_02h06.01.636,,,41
8.766854827,AW51942,0.242825,1,2020-06-18_02h06.01.636,,,42
8.849980628,AW51942,0.29224,1,2020-06-18_02h06.01.636,,,43
2.717906128,AW51942,0.290895,2,2020-06-24_21h31.19.713,,,0
2.556370032,AW51942,0.251205,2,2020-06-24_21h31.19.713,,,1
5.644741405,AW51942,0.236395,2,2020-06-24_21h31.19.713,,,2
2.762058054,AW51942,0.26901,2,2020-06-24_21h31.19.713,,,3
5.900222179,AW51942,0.270055,2,2020-06-24_21h31.19.713,,,4
9.655437863,AW51942,0.269445,2,2020-06-24_21h31.19.713,,,5
7.177065611,AW51942,0.252005,2,2020-06-24_21h31.19.713,,,6
5.930290843,AW51942,0.284795,2,2020-06-24_21h31.19.713,,,7
8.096213199,AW51942,0.38797,2,2020-06-24_21h31.19.713,,,8
7.82512598,AW51942,0.28401,2,2020-06-24_21h31.19.713,,,9
9.758398633,AW51942,0.25442,2,2020-06-24_21h31.19.713,,,10
9.22030597,AW51942,0.354555,2,2020-06-24_21h31.19.713,,,11
8.901318177,AW51942,0.267555,2,2020-06-24_21h31.19.713,,,12
2.699262026,AW51942,0.407795,2,2020-06-24_21h31.19.713,,,13
5.19469063,AW51942,0.25479,2,2020-06-24_21h31.19.713,,,14
7.304776908,AW51942,0.318405,2,2020-06-24_21h31.19.713,,,15
5.269199979,AW51942,0.2848,2,2020-06-24_21h31.19.713,,,16
5.57524523,AW51942,0.32643,2,2020-06-24_21h31.19.713,,,17
4.081663173,AW51942,0.34355,2,2020-06-24_21h31.19.713,,,18
7.117438453,AW51942,0.29145,2,2020-06-24_21h31.19.713,,,19
5.0149714,AW51942,0.382215,2,2020-06-24_21h31.19.713,,,20
2.878467787,AW51942,0.32243,2,2020-06-24_21h31.19.713,,,21
6.658985086,AW51942,0.491575,2,2020-06-24_21h31.19.713,,,22
4.391323423,AW51942,0.35253,2,2020-06-24_21h31.19.713,,,23
8.463446425,AW51942,0.450975,2,2020-06-24_21h31.19.713,,,24
8.947725719,AW51942,0.225185,2,2020-06-24_21h31.19.713,,,25
5.908583736,AW51942,0.265685,2,2020-06-24_21h31.19.713,,,26
5.537753604,AW51942,0.26829,2,2020-06-24_21h31.19.713,,,27
4.282045169,AW51942,0.285725,2,2020-06-24_21h31.19.713,,,28
3.894571696,AW51942,0.29169,2,2020-06-24_21h31.19.713,,,29
9.260877603,AW51942,0.270115,2,2020-06-24_21h31.19.713,,,30
3.205470622,AW51942,0.367965,2,2020-06-24_21h31.19.713,,,31
5.690322659,AW51942,0.366355,2,2020-06-24_21h31.19.713,,,32
7.01601763,AW51942,0.254885,2,2020-06-24_21h31.19.713,,,33
8.582225069,AW51942,0.267735,2,2020-06-24_21h31.19.713,,,34
7.341664919,AW51942,0.29216,2,2020-06-24_21h31.19.713,,,35
8.429400663,AW51942,0.321395,2,2020-06-24_21h31.19.713,,,36
9.383356889,AW51942,0.356865,2,2020-06-24_21h31.19.713,,,37
5.986050449,AW51942,0.37627,2,2020-06-24_21h31.19.713,,,38
7.123887307,AW51942,0.287355,2,2020-06-24_21h31.19.713,,,39
7.539305983,AW75421,0.479025,2,2020-07-19_19h44.58.568,,,0
7.79027677,AW75421,0.312335,2,2020-07-19_19h44.58.568,,,1
2.142097134,AW75421,0.402305,2,2020-07-19_19h44.58.568,,,2
7.147776497,AW75421,0.31658,2,2020-07-19_19h44.58.568,,,3
6.264319878,AW75421,0.29144,2,2020-07-19_19h44.58.568,,,4
8.007061132,AW75421,0.2945,2,2020-07-19_19h44.58.568,,,5
7.579283072,AW75421,0.355325,2,2020-07-19_19h44.58.568,,,6
6.241014545,AW75421,0.306045,2,2020-07-19_19h44.58.568,,,7
9.92240938,AW75421,0.30634,2,2020-07-19_19h44.58.568,,,8
7.643496499,AW75421,0.31766,2,2020-07-19_19h44.58.568,,,9
6.42079832,AW75421,0.334025,2,2020-07-19_19h44.58.568,,,10
8.985475529,AW75421,0.30555,2,2020-07-19_19h44.58.568,,,11
4.445530426,AW75421,0.320435,2,2020-07-19_19h44.58.568,,,12
3.241359847,AW75421,0.32499,2,2020-07-19_19h44.58.568,,,13
2.252268277,AW75421,0.31434,2,2020-07-19_19h44.58.568,,,14
3.195163576,AW75421,0.27189,2,2020-07-19_19h44.58.568,,,15
3.712097092,AW75421,0.29415,2,2020-07-19_19h44.58.568,,,16
9.483399309,AW75421,0.31132,2,2020-07-19_19h44.58.568,,,17
7.308544776,AW75421,0.317955,2,2020-07-19_19h44.58.568,,,18
8.714893965,AW75421,0.334365,2,2020-07-19_19h44.58.568,,,19
6.157723019,AW75421,0.312515,2,2020-07-19_19h44.58.568,,,20
5.862404715,AW75421,0.328275,2,2020-07-19_19h44.58.568,,,21
8.517303959,AW75421,0.31765,2,2020-07-19_19h44.58.568,,,22
9.112283134,AW75421,0.335115,2,2020-07-19_19h44.58.568,,,23
8.720146115,AW75421,0.30089,2,2020-07-19_19h44.58.568,,,24
6.774277947,AW75421,0.320415,2,2020-07-19_19h44.58.568,,,25
6.824747648,AW75421,0.33795,2,2020-07-19_19h44.58.568,,,26
5.795860374,AW75421,0.35489,2,2020-07-19_19h44.58.568,,,27
5.540399037,AW75421,0.301475,2,2020-07-19_19h44.58.568,,,28
5.519665291,AW75421,0.34526,2,2020-07-19_19h44.58.568,,,29
2.98279158,AW75421,0.6235,2,2020-07-19_19h44.58.568,,,30
2.835037354,AW75421,0.302095,2,2020-07-19_19h44.58.568,,,31
6.696751892,AW75421,0.33677,2,2020-07-19_19h44.58.568,,,32
5.201293647,AW75421,0.296245,2,2020-07-19_19h44.58.568,,,33
4.446305389,AW75421,0.304635,2,2020-07-19_19h44.58.568,,,34
7.712958637,AW75421,0.303445,2,2020-07-19_19h44.58.568,,,35
7.818333006,AW75421,0.308085,2,2020-07-19_19h44.58.568,,,36
4.769456772,AW75421,0.317085,2,2020-07-19_19h44.58.568,,,37
4.329482294,AW75421,0.319575,2,2020-07-19_19h44.58.568,,,38
6.290142545,AW75421,0.286105,2,2020-07-19_19h44.58.568,,,39
5.712059345,BC48907,0.391675,1,2020-05-20_03h16.03.216,,,0
7.84368144,BC48907,0.255325,1,2020-05-20_03h16.03.216,"[""space"",""space""]","[3.836810000000014,4.18885499999999]",1
8.17227685,BC48907,0.45269,1,2020-05-20_03h16.03.216,"[""space""]",[7.167380000000037],2
9.075539217,BC48907,0.383895,1,2020-05-20_03h16.03.216,,,3
4.483074362,BC48907,0.754385,1,2020-05-20_03h16.03.216,"[""space""]",[2.382494999999949],4
6.143002146,BC48907,0.38474,1,2020-05-20_03h16.03.216,"[""space"",""space""]","[2.7899699999999825,5.073874999999987]",5
7.746948043,BC48907,0.4016,1,2020-05-20_03h16.03.216,"[""space"",""space"",""space"",""space""]","[2.157655000000034,5.2344850000000065,6.087805000000003,6.759940000000029]",6
2.623592542,BC48907,0.65137,1,2020-05-20_03h16.03.216,"[""space""]",[2.366784999999993],7
3.633315291,BC48907,0.27489,1,2020-05-20_03h16.03.216,,,8
2.248440297,BC48907,1.46601,1,2020-05-20_03h16.03.216,,,9
9.927765728,BC48907,0.849235,1,2020-05-20_03h16.03.216,"[""space"",""space"",""space"",""space"",""space"",""space"",""space""]","[0.5955100000000471,2.4007500000000164,3.1388450000000034,6.054750000000013,6.605335000000025,7.4156750000000216,8.426424999999995]",10
9.949590151,BC48907,0.334525,1,2020-05-20_03h16.03.216,"[""space"",""space"",""space"",""space"",""space""]","[2.4485800000000495,3.8591350000000375,4.91844500000002,8.246180000000038,9.591910000000041]",11
3.453127179,BC48907,0.127505,1,2020-05-20_03h16.03.216,,,12
8.191508521,BC48907,0.10077,1,2020-05-20_03h16.03.216,"[""space"",""space"",""space"",""space"",""space""]","[1.0262350000000424,2.150290000000041,4.574530000000038,6.040225000000021,7.246075000000019]",13
4.091926722,BC48907,0.107425,1,2020-05-20_03h16.03.216,"[""space"",""space"",""space"",""space""]","[0.29735499999998183,1.5358299999999758,2.8118799999999737,3.437385000000006]",14
7.395216064,BC48907,0.98894,1,2020-05-20_03h16.03.216,"[""space"",""space"",""space"",""space"",""space"",""space"",""space"",""space"",""space""]","[0.272845000000018,1.7820950000000266,2.6265600000000404,3.701180000000022,4.48121500000002,5.232775000000004,5.903200000000027,6.547259999999994,7.372670000000028]",15
4.410854903,BC48907,0.35658,1,2020-05-20_03h16.03.216,"[""space"",""space"",""space""]","[0.7190550000000258,1.9297900000000254,3.108249999999998]",16
7.77408548,BC48907,0.47068,1,2020-05-20_03h16.03.216,"[""space"",""space"",""space"",""space"",""space""]","[2.8105849999999464,3.6333249999999566,5.052599999999984,6.277769999999975,7.2042299999999955]",17
2.125392131,BC48907,0.63987,1,2020-05-20_03h16.03.216,,,18
7.367111453,BC48907,1.26837,1,2020-05-20_03h16.03.216,"[""space"",""space"",""space"",""space"",""space"",""space""]","[0.5539549999999736,2.9037099999999327,4.1039650000000165,5.395194999999944,5.985384999999951,7.114365000000021]",19
2.367613549,BC48907,0.51703,1,2020-05-20_03h16.03.216,"[""space"",""space"",""space""]","[0.47230000000001837,1.1699250000000347,2.330310000000054]",20
5.176854874,BC48907,0.37775,1,2020-05-20_03h16.03.216,"[""space"",""space"",""space""]","[1.521765000000073,3.0225350000001185,4.83549000000005]",21
2.678415463,BC48907,0.61809,1,2020-05-20_03h16.03.216,"[""space""]",[0.012164999999981774],22
5.645059484,BC48907,0.051925,1,2020-05-20_03h16.03.216,"[""space"",""space"",""space"",""space""]","[1.2398999999999205,3.846369999999979,4.654284999999959,5.152029999999968]",23
7.902805416,BC48907,0.31911,1,2020-05-20_03h16.03.216,"[""space"",""space"",""space"",""space"",""space"",""space"",""space"",""space"",""space""]","[0.715644999999995,1.8368500000000267,2.5854699999999866,3.0221900000000232,3.765434999999968,4.4992449999999735,5.649409999999989,6.624625000000037,7.80477499999995]",24
8.489322215,BC48907,0.387065,1,2020-05-20_03h16.03.216,"[""space"",""space"",""space"",""space"",""space"",""space"",""space"",""space""]","[2.058674999999994,3.597849999999994,4.301244999999994,5.085239999999999,5.979990000000043,6.5763749999999845,7.120535000000018,8.153400000000033]",25
5.372202332,BC48907,0.368685,1,2020-05-20_03h16.03.216,"[""space"",""space"",""space"",""space"",""space"",""space"",""space"",""space""]","[0.0917699999999968,0.7563199999999597,1.817320000000052,2.6578799999999774,3.12032499999998,3.804399999999987,4.6164850000000115,5.315174999999954]",26
7.250892334,BC48907,0.50688,1,2020-05-20_03h16.03.216,"[""space"",""space"",""space"",""space"",""space"",""space"",""space"",""space"",""space"",""space"",""space""]","[0.28351999999995314,0.8898749999999609,1.5648299999999153,2.2551149999999325,2.747700000000009,3.4711449999999786,4.202339999999936,4.756369999999947,5.283594999999991,5.8183899999999085,6.595119999999952]",27
8.364712249,BC48907,0.29125,1,2020-05-20_03h16.03.216,"[""space"",""space"",""space"",""space"",""space"",""space""]","[0.5702849999999557,2.738855000000001,4.287390000000016,5.88385500000004,6.76330999999999,7.900045000000034]",28
5.097340893,BC48907,0.27265,1,2020-05-20_03h16.03.216,"[""space"",""space"",""space"",""space""]","[0.010760000000004766,0.575025000000096,2.950725000000034,4.475195000000099]",29
8.899882716,BC48907,0.259155,1,2020-05-20_03h16.03.216,"[""space"",""space"",""space"",""space"",""space"",""space"",""space"",""space"",""space""]","[1.1329150000000254,3.534400000000062,4.247985000000142,5.421855000000107,6.354285000000061,7.157745000000148,8.049600000000112,8.486025000000097,8.825760000000116]",30
5.824767358,BC48907,0.45142,1,2020-05-20_03h16.03.216,"[""space"",""space"",""space"",""space""]","[3.5371000000000095,4.223124999999982,5.214974999999981,5.72978999999998]",31
5.985517678,BC48907,0.32686,1,2020-05-20_03h16.03.216,"[""space"",""space"",""space"",""space"",""space"",""space""]","[0.6557500000000118,2.0165100000000393,3.10320999999999,3.834495000000061,4.863879999999995,5.487854999999968]",32
4.572890725,BC48907,0.16971,1,2020-05-20_03h16.03.216,"[""space"",""space"",""space"",""space"",""space"",""space""]","[0.9075149999999894,1.5361500000000206,2.0161150000000134,2.549380000000042,3.5719850000000406,4.1342899999999645]",33
7.436249702,BC48907,0.103915,1,2020-05-20_03h16.03.216,"[""space"",""space"",""space"",""space"",""space""]","[3.417320000000018,4.59866999999997,5.3530399999999645,5.975509999999986,6.74267999999995]",34
9.407614914,BC48907,0.31898,1,2020-05-20_03h16.03.216,"[""space"",""space"",""space"",""space"",""space"",""space"",""space"",""space""]","[2.015164999999911,2.698894999999993,3.719684999999913,5.605119999999943,6.360185000000001,7.231854999999996,8.280599999999936,9.219164999999975]",35
4.542892952,BC48907,0.424755,1,2020-05-20_03h16.03.216,"[""space"",""space"",""space""]","[1.141375000000039,1.9191600000000335,4.372685000000047]",36
8.104253532,BC48907,0.212775,1,2020-05-20_03h16.03.216,"[""space"",""space"",""space"",""space"",""space"",""space"",""space"",""space"",""space""]","[0.45475999999985106,2.0834199999999328,4.582164999999918,5.201619999999934,6.252739999999903,6.809374999999932,7.138614999999845,7.49626499999988,7.92274499999985]",37
8.873015694,BC48907,0.0878,1,2020-05-20_03h16.03.216,"[""space"",""space"",""space"",""space"",""space"",""space""]","[0.3314299999999548,1.636714999999981,3.652280000000019,5.029085000000009,5.616774999999961,6.67354499999999]",38
3.987874321,BD22081,0.327525,1,2020-06-17_11h29.53.141,,,0
5.627996652,BD22081,0.274655,1,2020-06-17_11h29.53.141,,,1
2.01819378,BD22081,0.289965,1,2020-06-17_11h29.53.141,,,2
3.365666395,BD22081,0.27185,1,2020-06-17_11h29.53.141,,,3
8.821260811,BD22081,0.283375,1,2020-06-17_11h29.53.141,,,4
5.544554635,BD22081,0.27408,1,2020-06-17_11h29.53.141,,,5
2.952186145,BD22081,0.307905,1,2020-06-17_11h29.53.141,,,6
2.407519184,BD22081,0.2857,1,2020-06-17_11h29.53.141,,,7
5.379124984,BD22081,0.26878,1,2020-06-17_11h29.53.141,,,8
2.708879062,BD22081,0.27136,1,2020-06-17_11h29.53.141,,,9
9.922808597,BD22081,0.269,1,2020-06-17_11h29.53.141,,,10
7.360394494,BD22081,0.268385,1,2020-06-17_11h29.53.141,,,11
5.922502126,BD22081,0.286565,1,2020-06-17_11h29.53.141,,,12
8.841731221,BD22081,0.254765,1,2020-06-17_11h29.53.141,,,13
2.448165906,BD22081,0.290495,1,2020-06-17_11h29.53.141,,,14
7.9856364,BD22081,0.274865,1,2020-06-17_11h29.53.141,,,15
7.567176577,BD22081,0.251945,1,2020-06-17_11h29.53.141,,,16
7.103763542,BD22081,0.284875,1,2020-06-17_11h29.53.141,,,17
7.533000393,BD22081,0.27518,1,2020-06-17_11h29.53.141,,,18
6.054903219,BD22081,0.28459,1,2020-06-17_11h29.53.141,,,19
6.967244438,BD22081,0.282195,1,2020-06-17_11h29.53.141,,,20
6.573706339,BD22081,0.275645,1,2020-06-17_11h29.53.141,,,21
6.553556222,BD22081,0.25227,1,2020-06-17_11h29.53.141,,,22
5.460692763,BD22081,0.2709,1,2020-06-17_11h29.53.141,,,23
3.815708542,BD22081,0.26868,1,2020-06-17_11h29.53.141,,,24
9.921942437,BD22081,0.24996,1,2020-06-17_11h29.53.141,,,25
2.685009567,BD22081,0.27787,1,2020-06-17_11h29.53.141,,,26
4.287832616,BD22081,0.269455,1,2020-06-17_11h29.53.141,,,27
6.721849176,BD22081,0.26925,1,2020-06-17_11h29.53.141,,,28
9.606941727,BD22081,0.270365,1,2020-06-17_11h29.53.141,,,29
9.388150512,BD22081,0.285395,1,2020-06-17_11h29.53.141,,,30
8.888304813,BD22081,0.291285,1,2020-06-17_11h29.53.141,,,31
3.815029853,BD22081,0.33928,1,2020-06-17_11h29.53.141,,,32
8.81292363,BD22081,0.254925,1,2020-06-17_11h29.53.141,,,33
7.277553333,BD22081,0.268655,1,2020-06-17_11h29.53.141,,,34
6.549733939,BD22081,0.27336,1,2020-06-17_11h29.53.141,,,35
4.784500547,BD22081,0.26673,1,2020-06-17_11h29.53.141,,,36
2.607582708,BD22081,0.320745,1,2020-06-17_11h29.53.141,,,37
9.135680426,BD22081,0.31594,1,2020-06-17_11h29.53.141,,,38
5.903393712,BD22081,0.30373,1,2020-06-17_11h29.53.141,,,39
5.050578184,BD22081,0.275995,1,2020-06-17_11h29.53.141,,,40
5.474437922,BDI85115,0.436,2,2020-06-02_17h39.14.634,,,0
3.788234008,BDI85115,0.345,2,2020-06-02_17h39.14.634,,,1
5.355781806,BDI85115,0.425,2,2020-06-02_17h39.14.634,,,2
6.858738214,BDI85115,0.337,2,2020-06-02_17h39.14.634,,,3
3.051484911,BDI85115,0.285,2,2020-06-02_17h39.14.634,,,4
9.074921598,BDI85115,0.33,2,2020-06-02_17h39.14.634,,,5
6.483265702,BDI85115,0.338,2,2020-06-02_17h39.14.634,"[""space""]",[2.812000000000012],6
2.713913332,BDI85115,0.436,2,2020-06-02_17h39.14.634,,,7
4.672414407,BDI85115,0.412,2,2020-06-02_17h39.14.634,,,8
7.092737644,BDI85115,0.347,2,2020-06-02_17h39.14.634,,,9
9.466987594,BDI85115,0.35,2,2020-06-02_17h39.14.634,,,10
6.895747418,BDI85115,0.349,2,2020-06-02_17h39.14.634,,,11
6.19424524,BDI85115,0.355,2,2020-06-02_17h39.14.634,,,12
8.319154175,BDI85115,0.843,2,2020-06-02_17h39.14.634,,,13
8.127844826,BDI85115,0.421,2,2020-06-02_17h39.14.634,,,14
2.974964822,BDI85115,0.346,2,2020-06-02_17h39.14.634,,,15
4.584676108,BDI85115,0.271,2,2020-06-02_17h39.14.634,,,16
3.494867189,BDI85115,0.447,2,2020-06-02_17h39.14.634,,,17
7.402979883,BDI85115,0.4,2,2020-06-02_17h39.14.634,,,18
5.067587158,BDI85115,0.433,2,2020-06-02_17h39.14.634,,,19
2.204974415,BDI85115,0.353,2,2020-06-02_17h39.14.634,,,20
5.859288439,BDI85115,0.324,2,2020-06-02_17h39.14.634,,,21
8.408806676,BDI85115,0.371,2,2020-06-02_17h39.14.634,,,22
6.732150454,BDI85115,0.294,2,2020-06-02_17h39.14.634,,,23
6.481161479,BDI85115,0.263,2,2020-06-02_17h39.14.634,,,24
4.92101619,BDI85115,0.291,2,2020-06-02_17h39.14.634,,,25
3.404956001,BDI85115,0.289,2,2020-06-02_17h39.14.634,,,26
9.210277401,BDI85115,0.387,2,2020-06-02_17h39.14.634,,,27
2.466255551,BDI85115,0.327,2,2020-06-02_17h39.14.634,,,28
6.917830436,BDI85115,0.381,2,2020-06-02_17h39.14.634,,,29
6.626739191,BDI85115,0.374,2,2020-06-02_17h39.14.634,,,30
3.604953592,BDI85115,0.326,2,2020-06-02_17h39.14.634,,,31
5.315434304,BDI85115,0.312,2,2020-06-02_17h39.14.634,,,32
8.882128376,BDI85115,0.405,2,2020-06-02_17h39.14.634,,,33
6.476289893,BDI85115,0.362,2,2020-06-02_17h39.14.634,,,34
2.902329286,BDI85115,0.384,2,2020-06-02_17h39.14.634,,,35
5.658409778,BDI85115,0.367,2,2020-06-02_17h39.14.634,,,36
8.030778451,BDI85115,0.397,2,2020-06-02_17h39.14.634,,,37
4.456876502,BDI85115,0.409,2,2020-06-02_17h39.14.634,,,38
4.316300853,BDI85115,0.359,2,2020-06-02_17h39.14.634,,,39
2.074171786,BDI85115,0.38,2,2020-06-02_17h39.14.634,,,40
4.376222957,BDI85115,0.301,2,2020-06-02_17h39.14.634,,,41
2.325232526,BDI85115,0.288,2,2020-06-02_17h39.14.634,,,42
4.389687342,BDI85115,0.296,2,2020-06-02_17h39.14.634,,,43
4.37523793,CA30802,0.3114,1,2020-05-19_14h31.57.948,,,0
5.471961513,CA30802,0.2562,1,2020-05-19_14h31.57.948,,,1
6.96135789,CA30802,0.2396,1,2020-05-19_14h31.57.948,,,2
9.190463906,CA30802,0.2681,1,2020-05-19_14h31.57.948,,,3
8.529225001,CA30802,0.2805,1,2020-05-19_14h31.57.948,,,4
3.39757657,CA30802,0.3045,1,2020-05-19_14h31.57.948,,,5
6.313746437,CA30802,0.2544,1,2020-05-19_14h31.57.948,,,6
6.88340419,CA30802,0.256,1,2020-05-19_14h31.57.948,,,7
3.512329565,CA30802,0.3363,1,2020-05-19_14h31.57.948,,,8
6.450451708,CA30802,0.3239,1,2020-05-19_14h31.57.948,,,9
3.250595582,CA30802,0.2894,1,2020-05-19_14h31.57.948,,,10
5.083475165,CA30802,0.3909,1,2020-05-19_14h31.57.948,,,11
4.655466205,CA30802,0.2698,1,2020-05-19_14h31.57.948,,,12
4.613614455,CA30802,0.3242,1,2020-05-19_14h31.57.948,,,13
4.410737111,CA30802,0.2587,1,2020-05-19_14h31.57.948,,,14
4.421359117,CA30802,0.2848,1,2020-05-19_14h31.57.948,,,15
8.081083182,CA30802,0.3179,1,2020-05-19_14h31.57.948,,,16
3.556310635,CA30802,0.3407,1,2020-05-19_14h31.57.948,,,17
9.50888622,CA30802,0.2367,1,2020-05-19_14h31.57.948,,,18
5.69878715,CA30802,0.2703,1,2020-05-19_14h31.57.948,,,19
3.190375719,CA30802,0.273,1,2020-05-19_14h31.57.948,,,20
4.370525225,CA30802,0.2403,1,2020-05-19_14h31.57.948,,,21
7.003259871,CA30802,0.2558,1,2020-05-19_14h31.57.948,,,22
7.31230458,CA30802,0.3189,1,2020-05-19_14h31.57.948,,,23
9.093113125,CA30802,0.2424,1,2020-05-19_14h31.57.948,,,24
3.236955271,CA30802,0.3485,1,2020-05-19_14h31.57.948,,,25
2.242837031,CA30802,0.331,1,2020-05-19_14h31.57.948,,,26
7.896197091,CA30802,0.3113,1,2020-05-19_14h31.57.948,,,27
9.132226652,CA30802,0.2528,1,2020-05-19_14h31.57.948,,,28
9.034987833,CA30802,0.2516,1,2020-05-19_14h31.57.948,,,29
6.518803385,CA30802,0.3394,1,2020-05-19_14h31.57.948,,,30
2.515350617,CA30802,0.3366,1,2020-05-19_14h31.57.948,,,31
2.833695185,CA30802,0.3023,1,2020-05-19_14h31.57.948,,,32
6.22644024,CA30802,0.2714,1,2020-05-19_14h31.57.948,,,33
3.174557849,CA30802,0.3895,1,2020-05-19_14h31.57.948,,,34
8.802952162,CA30802,0.2886,1,2020-05-19_14h31.57.948,,,35
6.307523326,CA30802,0.286,1,2020-05-19_14h31.57.948,,,36
7.642537902,CA30802,0.3067,1,2020-05-19_14h31.57.948,,,37
2.495043074,CA30802,0.3687,1,2020-05-19_14h31.57.948,,,38
9.271496399,CA30802,0.3664,1,2020-05-19_14h31.57.948,,,39
4.568267369,CA30802,0.3402,1,2020-05-19_14h31.57.948,,,40
2.993109574,CA30802,0.3048,1,2020-05-19_14h31.57.948,,,41
4.334647594,CA30802,0.2841,1,2020-05-19_14h31.57.948,,,42
9.436410189,CA30802,0.6517,2,2020-05-26_09h27.26.708,"[""space""]",[9.305399999999995],0
4.65410204,CA30802,0.2844,2,2020-05-26_09h27.26.708,,,1
5.371996565,CA30802,0.284,2,2020-05-26_09h27.26.708,,,2
4.467242792,CA30802,0.2629,2,2020-05-26_09h27.26.708,,,3
2.90145346,CA30802,0.322,2,2020-05-26_09h27.26.708,"[""space""]",[0.5172999999999916],4
5.994088329,CA30802,0.2542,2,2020-05-26_09h27.26.708,,,5
5.935882379,CA30802,0.2196,2,2020-05-26_09h27.26.708,,,6
5.809951376,CA30802,0.2891,2,2020-05-26_09h27.26.708,,,7
6.400913636,CA30802,0.3514,2,2020-05-26_09h27.26.708,,,8
3.783571235,CA30802,0.2376,2,2020-05-26_09h27.26.708,,,9
9.739058393,CA30802,0.2671,2,2020-05-26_09h27.26.708,,,10
3.590362595,CA30802,0.3635,2,2020-05-26_09h27.26.708,,,11
5.093132115,CA30802,0.3167,2,2020-05-26_09h27.26.708,,,12
8.461337138,CA30802,0.2784,2,2020-05-26_09h27.26.708,"[""space""]",[3.3525999999999953],13
5.285190148,CA30802,0.3614,2,2020-05-26_09h27.26.708,,,14
4.623753422,CA30802,0.3059,2,2020-05-26_09h27.26.708,,,15
4.833256855,CA30802,0.274,2,2020-05-26_09h27.26.708,,,16
2.060239167,CA30802,0.3511,2,2020-05-26_09h27.26.708,,,17
5.666472712,CA30802,0.2509,2,2020-05-26_09h27.26.708,,,18
9.872012094,CA30802,0.2896,2,2020-05-26_09h27.26.708,,,19
5.562564121,CA30802,0.3182,2,2020-05-26_09h27.26.708,,,20
6.038999004,CA30802,0.2844,2,2020-05-26_09h27.26.708,,,21
8.379408357,CA30802,0.3064,2,2020-05-26_09h27.26.708,,,22
9.823313216,CA30802,0.2708,2,2020-05-26_09h27.26.708,,,23
8.061877847,CA30802,0.4557,2,2020-05-26_09h27.26.708,,,24
8.28987475,CA30802,0.2519,2,2020-05-26_09h27.26.708,,,25
4.716089135,CA30802,0.2597,2,2020-05-26_09h27.26.708,,,26
2.452118538,CA30802,0.2516,2,2020-05-26_09h27.26.708,,,27
3.064475048,CA30802,0.2668,2,2020-05-26_09h27.26.708,,,28
4.911367604,CA30802,0.2439,2,2020-05-26_09h27.26.708,,,29
3.029183892,CA30802,0.2568,2,2020-05-26_09h27.26.708,"[""space""]",[0.15550000000001773],30
4.431543518,CA30802,0.2492,2,2020-05-26_09h27.26.708,,,31
8.035317169,CA30802,0.2533,2,2020-05-26_09h27.26.708,,,32
6.749243886,CA30802,0.2698,2,2020-05-26_09h27.26.708,,,33
7.850270813,CA30802,0.2998,2,2020-05-26_09h27.26.708,"[""space""]",[1.2643999999999664],34
7.517906321,CA30802,0.2572,2,2020-05-26_09h27.26.708,,,35
8.62167554,CA30802,0.2416,2,2020-05-26_09h27.26.708,,,36
9.292486768,CA30802,0.2368,2,2020-05-26_09h27.26.708,,,37
7.468732977,CA30802,0.3056,2,2020-05-26_09h27.26.708,,,38
7.062903837,CA30802,0.2532,2,2020-05-26_09h27.26.708,,,39
4.547090413,CA30802,0.2663,2,2020-05-26_09h27.26.708,,,40
3.842055819,CB45784,0.34905,1,2020-06-26_14h49.36.065,,,0
5.120127045,CB45784,0.320495,1,2020-06-26_14h49.36.065,,,1
7.739466233,CB45784,0.385565,1,2020-06-26_14h49.36.065,,,2
9.869178261,CB45784,0.31941,1,2020-06-26_14h49.36.065,,,3
2.892519825,CB45784,0.28243,1,2020-06-26_14h49.36.065,,,4
5.460960087,CB45784,0.286245,1,2020-06-26_14h49.36.065,,,5
4.904361693,CB45784,0.304085,1,2020-06-26_14h49.36.065,"[""space""]",[3.4121549999981653],6
7.174479884,CB45784,0.266905,1,2020-06-26_14h49.36.065,"[""space""]",[5.167105000000447],7
2.524140622,CB45784,0.367105,1,2020-06-26_14h49.36.065,,,8
7.845223636,CB45784,0.29292,1,2020-06-26_14h49.36.065,,,9
3.021884502,CB45784,0.35437,1,2020-06-26_14h49.36.065,"[""space""]",[1.6031850000144914],10
5.947504942,CB45784,0.315145,1,2020-06-26_14h49.36.065,,,11
4.371713579,CB45784,0.392615,1,2020-06-26_14h49.36.065,,,12
6.676220864,CB45784,0.299055,1,2020-06-26_14h49.36.065,"[""space""]",[4.825284999998985],13
2.863875525,CB45784,0.29888,1,2020-06-26_14h49.36.065,,,14
9.759061794,CB45784,0.27035,1,2020-06-26_14h49.36.065,,,15
3.495508564,CB45784,0.31627,1,2020-06-26_14h49.36.065,,,16
6.623950324,CB45784,0.315325,1,2020-06-26_14h49.36.065,"[""space""]",[2.2233699999924283],17
7.398363136,CB45784,0.303645,1,2020-06-26_14h49.36.065,,,18
9.071611221,CB45784,0.282815,1,2020-06-26_14h49.36.065,"[""space""]",[3.5313050000113435],19
7.937162897,CB45784,0.35099,1,2020-06-26_14h49.36.065,,,20
3.284204471,CB45784,0.45507,1,2020-06-26_14h49.36.065,,,21
3.652733158,CB45784,0.28301,1,2020-06-26_14h49.36.065,,,22
9.483903645,CB45784,0.33433,1,2020-06-26_14h49.36.065,,,23
4.408340413,CB45784,0.304745,1,2020-06-26_14h49.36.065,,,24
6.577627487,CB45784,0.534545,1,2020-06-26_14h49.36.065,,,25
8.830771757,CB45784,0.249165,1,2020-06-26_14h49.36.065,,,26
6.425928317,CB45784,0.348295,1,2020-06-26_14h49.36.065,,,27
3.713568121,CB45784,0.321365,1,2020-06-26_14h49.36.065,,,28
2.426003437,CB45784,0.31828,1,2020-06-26_14h49.36.065,,,29
5.63497217,CB45784,0.419715,1,2020-06-26_14h49.36.065,,,30
2.488080776,CB45784,0.370605,1,2020-06-26_14h49.36.065,,,31
2.828024926,CB45784,0.40457,1,2020-06-26_14h49.36.065,,,32
8.922111816,CB45784,0.29795,1,2020-06-26_14h49.36.065,,,33
8.451472983,CB45784,0.298685,1,2020-06-26_14h49.36.065,,,34
5.000893862,CB45784,0.46845,1,2020-06-26_14h49.36.065,,,35
8.698830529,CB45784,0.400735,1,2020-06-26_14h49.36.065,,,36
8.99023898,CB45784,0.33875,1,2020-06-26_14h49.36.065,,,37
8.401110568,CB45784,0.640315,1,2020-06-26_14h49.36.065,,,38
5.680745269,CB45784,0.33249,1,2020-06-26_14h49.36.065,,,39
3.407255944,CB45784,0.3881,1,2020-06-26_14h49.36.065,,,40
3.11507186,CB45784,0.332855,1,2020-06-26_14h49.36.065,"[""space""]",[2.5110749999876134],41
8.826042291,CB45784,0.260075,2,2020-07-02_13h54.49.212,,,0
7.770788732,CB45784,0.29668,2,2020-07-02_13h54.49.212,,,1
6.000427885,CB45784,0.30716,2,2020-07-02_13h54.49.212,,,2
4.388481555,CB45784,0.390925,2,2020-07-02_13h54.49.212,,,3
5.051492123,CB45784,0.30353,2,2020-07-02_13h54.49.212,,,4
7.370969164,CB45784,0.27706,2,2020-07-02_13h54.49.212,,,5
6.67701405,CB45784,0.34321,2,2020-07-02_13h54.49.212,,,6
6.237968135,CB45784,0.287015,2,2020-07-02_13h54.49.212,,,7
2.358452072,CB45784,0.31656,2,2020-07-02_13h54.49.212,,,8
2.977103018,CB45784,0.26545,2,2020-07-02_13h54.49.212,,,9
9.604878549,CB45784,0.269745,2,2020-07-02_13h54.49.212,,,10
5.741339964,CB45784,0.31968,2,2020-07-02_13h54.49.212,,,11
2.824844261,CB45784,0.386515,2,2020-07-02_13h54.49.212,,,12
3.006745733,CB45784,0.385655,2,2020-07-02_13h54.49.212,,,13
4.622128754,CB45784,0.27966,2,2020-07-02_13h54.49.212,,,14
6.846959882,CB45784,0.30726,2,2020-07-02_13h54.49.212,,,15
6.210272039,CB45784,0.272025,2,2020-07-02_13h54.49.212,,,16
6.183566062,CB45784,0.29953,2,2020-07-02_13h54.49.212,"[""space""]",[0.8885899999877438],17
6.598317762,CB45784,0.305545,2,2020-07-02_13h54.49.212,,,18
8.569816336,CB45784,0.33799,2,2020-07-02_13h54.49.212,,,19
7.10259905,CB45784,0.28254,2,2020-07-02_13h54.49.212,,,20
7.64071217,CB45784,0.31849,2,2020-07-02_13h54.49.212,,,21
9.227846318,CB45784,0.337825,2,2020-07-02_13h54.49.212,,,22
6.318900321,CB45784,0.29925,2,2020-07-02_13h54.49.212,,,23
8.4824593,CB45784,0.36799,2,2020-07-02_13h54.49.212,,,24
9.051869495,CB45784,0.44878,2,2020-07-02_13h54.49.212,,,25
2.235627382,CB45784,1.3082,2,2020-07-02_13h54.49.212,,,26
4.153123319,CB45784,0.33151,2,2020-07-02_13h54.49.212,,,27
2.167635024,CB45784,0.289775,2,2020-07-02_13h54.49.212,,,28
4.684664726,CB45784,0.27042,2,2020-07-02_13h54.49.212,,,29
4.835047174,CB45784,0.348865,2,2020-07-02_13h54.49.212,,,30
2.471614337,CB45784,0.335715,2,2020-07-02_13h54.49.212,,,31
